roll,pitch,yaw,gx,gy,gz,ax,ay,az,flex0,flex1,flex2,flex3,flex4,label
-76.83630314879987,78.46624218780421,-45.279671925983855,-0.8447954409540226,-1.1078552080768285,0.2484609702043829,-0.924560546875,-0.220458984375,-0.0166015625,795,655,1023,1023,972,V
-2.3536174411720068,3.440207323149944,-1.066212815649784,0.2119724298049014,2.856971789865678,-1.3570819382348205,-0.5932928930003473,-0.5708666530468617,0.3767152758017449,1023,542,1021,1000,1021,Z
-73.38547193276273,62.41818714302836,-41.73382544985488,0.2315052590846729,1.1788440567066518,-0.438174974496077,0.798583984375,-0.231689453125,0.423828125,771,623,1023,1023,989,Q
-62.27864777727483,62.90784869303816,0.3591247648016743,-2.3499138143314453,0.6249340415801878,1.4214655081436658,-0.829833984375,-0.280029296875,0.321044921875,1006,831,316,1022,1023,U
-72.98778390611731,79.50231616006928,-34.86152622781472,1.3688043057656456,-0.1785274562915541,-0.9524044042635512,-0.912841796875,-0.121826171875,0.097412109375,1021,1023,1022,1023,1023,E
-72.47787899353327,78.34786285173972,-41.11075000539481,-0.1134243617913222,-0.4292609829284345,0.3980270742760869,-0.929895685408295,-0.2064076872719164,-0.0128051651437181,806,663,1022,1022,975,V
-84.27024357154855,79.43604774645111,-45.911186758969215,0.1581495617755153,0.5621289228159458,-1.3810079163132598,-0.72216796875,-0.41650390625,0.34765625,1023,750,1022,1023,1012,X
-9.79408984254269,27.98632876162757,-1.4302917072535073,3.273748939779474,2.0604325699745547,-1.572872490811422,-0.93408203125,-0.225830078125,-0.07470703125,532,1023,954,561,363,F
-8.405255966792488,24.420159081572223,-0.8899372087095767,-1.811638635976795,-0.3332803862088497,0.7263558927786733,-0.9226015714542952,-0.2644645617423622,-0.2549866713027677,729,1021,1022,1023,715,F
-16.023768562549794,60.44904068410819,-2.237734851329537,-0.918716426350014,1.6825699745547074,0.7001342945999439,-0.9423828125,-0.151611328125,-0.357421875,1023,1012,1023,1023,1022,U
-73.09817021401325,72.8593582227936,-23.57275014611331,0.1544658247440824,0.2552151123931473,-1.4513314806346087,-0.900390625,-0.24169921875,0.07275390625,843,1023,1005,845,1023,N
-106.78080599354824,77.82168745972722,-74.15094100723935,-0.5028554250896531,-0.8862284164500567,-0.3121168072832073,-0.9464708194165546,-0.1705055407313744,-0.1180686780186255,910,526,1021,1022,1023,W
-72.47366956751165,75.12081374510045,-23.62011606509748,0.9559925423013342,-2.3936398494389137,0.4875998170753151,-0.91650390625,-0.232177734375,0.034423828125,832,1023,979,834,1022,N
-60.26010818296753,56.449089226110274,-1.1015535373899592,-1.4033489288352623,-0.1002567981144685,1.5054349737925208,-0.88037109375,-0.273193359375,0.148193359375,1021,1022,1023,964,1021,M
-50.62266442358135,49.084719335174896,-27.37091316919776,-1.0239912758996723,0.0507264220635314,-0.437401062370282,-0.8798828125,-0.1904296875,0.19384765625,961,1023,1021,1022,1021,L
-59.42490290794175,70.69928909646174,-18.9218166546988,-1.8684349386146963,-0.2028001547824252,0.5944700460829486,-0.833984375,-0.37451171875,0.170166015625,977,485,396,1021,1021,V
-19.982454367756265,52.17197189046234,-7.743394607364528,-0.0026858919988688,-3.302162849872774,1.4940274243709364,-0.94384765625,-0.137939453125,-0.06884765625,1011,1022,1023,1023,936,M
-94.22723005515168,85.85519803540862,-62.863363978501056,2.414605832483203,2.59246491012066,0.6964505575685098,-0.936767578125,-0.094970703125,0.099609375,923,578,335,367,1023,W
-112.1341020663024,75.78662736065456,-72.23168771783294,7.240458015267175,4.019826123833758,36.58697342380549,-0.8984375,0.131103515625,0.031982421875,903,466,857,812,1023,W
-42.695942130477135,69.12676613128806,-0.6344177008866263,0.089487411133768,-0.2265785615365234,1.2330456072238505,-0.9171693874093532,-0.1764652884423738,0.1385598588180126,1022,1021,1021,947,1021,S
-39.70267563646742,45.863049935863664,-18.47404763673572,0.9382951653944018,-0.3200098953915747,0.1153873338987836,-0.50390625,-0.52099609375,-0.82958984375,496,767,738,1023,1021,K
-0.0232915983457605,0.0875151503362699,0.0170198750057887,-0.5879263253729259,1.109531479795504,0.6802297079627435,-0.8564453125,-0.333740234375,0.135498046875,1018,1020,476,257,530,F
-60.80605507770064,64.13144966537646,-30.55558435091473,-0.2446635566864574,-1.1108990670059375,-0.0937588351710492,-0.846923828125,-0.205078125,0.246337890625,573,635,1023,1023,905,R
-39.08214657928986,49.12304146871286,-7.507552392884234,-4.0598374784535824,-0.3979667217785907,-2.227389453688395,-0.889892578125,-0.302001953125,0.11962890625,1023,555,1019,1023,1023,D
-57.79107108842663,67.99301362369289,-17.28588116489304,8.818587962148662,-0.7982200021106695,1.1135540155485977,-0.8310546875,-0.349853515625,0.211669921875,983,527,373,296,1023,W
-1.601980293809891,6.483741891415753,-0.2218184783419717,-1.7167129841348014,-0.3019664403559996,-0.1774721215745591,-0.877685546875,-0.312744140625,0.083740234375,835,420,1022,1023,1022,D
-53.351048057074735,62.8785521966221,8.850021926891136,-0.1590741196749568,-2.9017835156717204,-1.4411299117036622,-0.70751953125,-0.2783203125,0.469482421875,1020,709,324,307,1020,W
-65.21594325640304,60.40851195261981,-4.799624464302769,-8.151440531888698,-2.871249164526682,-2.8228093010166395,-0.810546875,-0.47021484375,-0.00341796875,1023,1023,1023,873,1021,O
-9.128342801156462,26.30468746573356,-1.0897871952237672,0.7903049917332117,-0.6462869806873748,-0.3253245154254753,-0.936279296875,-0.2080078125,-0.0439453125,1023,1021,1023,1022,904,E
-18.17894369308097,53.1228479706527,-6.296837711444328,0.9973141080011312,-1.7983460559796438,0.0665465083404019,0.398193359375,-0.152099609375,0.751220703125,1022,822,1022,1023,1022,P
-31.621516395523045,49.4490418615412,-17.666141833873173,-1.6903802657619456,-3.541030534351144,-5.399349731410799,-0.949462890625,-0.123046875,-0.3798828125,811,827,888,1021,995,K
-43.107866504230245,52.98317551521676,-10.041805495116986,2.9401625215464176,3.76997220951912,-2.441129911703662,-0.2265625,-0.95654296875,-0.281982421875,995,949,1022,1022,1023,G
-82.29667894624515,85.61964142200236,-50.59486670497187,-0.1121117247687054,0.92070918492982,-1.0974425722024823,-0.831298828125,-0.195068359375,0.29736328125,1022,1023,1023,1023,1021,X
-2.098528448783402,4.985068124626553,0.7836885036498458,-0.3499194621472091,0.9347643392394424,0.0264724420477631,-0.889404296875,-0.284912109375,0.102783203125,1021,1021,1023,667,1023,M
-13.0695580742033,42.01943100842144,-4.125996421770036,-0.1400904721515405,-1.2258269720101782,-1.2922321176137963,-0.944091796875,-0.187255859375,-0.174560546875,666,754,1021,1023,985,K
-15.112476013774709,59.56806506146019,-1.8889841009882995,-0.2316935255866551,-3.1036895674300258,0.8222716991800967,-0.963134765625,-0.0078125,-0.1064453125,1021,1021,1023,1023,986,T
-76.03517441826232,79.01488681238182,-39.25791619503983,-0.1502796637000032,-0.5831076089633099,0.3453055194005709,0.52099609375,-0.229248046875,0.660888671875,752,966,931,948,1021,Q
0.3760229616499351,8.083092959169639,-1.480649875103051,0.1146465006777484,-0.5223656987943212,0.0689876578440473,-0.884765625,-0.0830078125,0.20068359375,1021,869,964,883,514,B
-73.21517952290235,62.30335847143946,-41.60045645257488,0.1704365567945965,0.6902944383860412,0.6686952545115565,0.79052734375,-0.230712890625,0.440185546875,771,616,1023,1023,992,Q
-72.8692414408231,61.94093878590213,-41.42587555943468,-0.0662046645794491,-0.3631406761177755,0.225947162908503,0.783203125,-0.24365234375,0.42919921875,770,617,1023,1023,991,Q
-84.62425076930013,70.20341726977138,-45.93619447439636,-3.367472434266327,0.8637616624257844,-0.3427692960135704,-0.837890625,-0.324951171875,0.15283203125,913,949,811,1023,1023,V
-55.09406600224809,69.16480029994194,-0.930321620913178,2.9636261300875937,-4.164632215851127,4.479966229289055,-0.879150390625,-0.3017578125,0.090087890625,980,1022,532,232,694,F
-4.514114962700183,0.0622400195153416,-0.112345406685898,-0.9120723777212324,5.095808594854397,2.0796225614927906,-0.079833984375,-0.937255859375,0.165283203125,613,845,1023,837,1023,H
-65.83006763444462,80.30240995717783,-27.80956988610232,0.1474302599641189,0.6382664368382169,-0.2577479157139328,-0.9169921875,-0.119384765625,0.118896484375,1021,1021,1022,1021,1023,E
-95.4580653493361,77.42583169171641,-57.70668167472837,0.4909417103457983,-0.6976114257572029,-0.1356105111337802,-0.8759765625,0.004150390625,0.263671875,911,1023,913,1023,587,I
-7.975767452326151,23.673575683326785,-0.8082921817874046,2.34245122985581,-3.947201017811705,2.740104608425219,-0.926513671875,-0.25,-0.233642578125,731,1022,1022,1023,723,F
-27.39789589921372,35.95588701016583,2.115480273110182,0.1024173027989822,0.088033644331354,0.8210347752332487,-0.9140625,-0.18603515625,0.037353515625,1023,816,388,1022,1023,U
-62.69370556931472,62.74387010641097,-0.1578710228484741,-1.1132725929573997,2.487529461427516,4.306961691349772,-0.88134765625,-0.17822265625,0.138671875,1023,1023,1023,861,1022,T
-56.32338532527286,66.43210517108835,1.5718313020138446,-3.532557076019277,3.110176944454216,3.021950962113483,-0.837890625,-0.285400390625,0.20263671875,890,558,355,296,672,B
-60.49513534411055,68.01681818342364,-5.687774422693288,1.02469483237767,1.6674288528511627,-1.313926900481937,0.001220703125,-1.023681640625,-0.11865234375,876,816,384,826,1019,H
-81.37959194829536,84.56992469466466,-45.09380008585195,-0.8449361522496215,2.935976360502339,1.6964505575685098,-0.923095703125,0.0625,0.09716796875,1021,1023,1023,1023,1021,S
-31.94085213101161,42.06771897254378,-0.4053272070726519,-1.561704834605598,-1.1791419281877298,-3.491942324003393,-0.677978515625,-0.5712890625,-0.63720703125,1023,1022,1022,1023,661,Y
-58.86164875833919,64.18154646283794,-19.85105538382295,9.971259717873853,-4.080662750202273,1.8005769163119565,-0.87255859375,-0.39404296875,0.02783203125,543,1023,1004,767,594,Y
-47.41548357017958,65.34045079596773,-32.559109598134974,-1.6611523894626363,1.977058774854013,0.7299289240914284,-0.8958481497653367,-0.2912007202323564,0.0564283295864092,570,1021,1021,1022,838,O
-50.04831761854497,69.25982324524672,-6.596790294362864,2.841488725507441,-1.4623421395152496,0.9074471453195898,0.587158203125,-0.272216796875,0.613037109375,635,801,732,494,669,P
-65.38821047397586,60.36019674048866,-4.842377571385133,-12.052203890667323,-2.375065958419812,-4.067084110176945,-0.801513671875,-0.51904296875,-0.0087890625,1023,1023,1022,871,1023,O
-11.885238955440672,33.86073127521105,-1.5701188281711482,4.34845914616907,4.354325699745547,-2.536506926774102,-0.202880859375,-0.932861328125,-0.12109375,857,1021,1022,1023,1023,G
-41.70334729208349,61.19004305784268,-26.542033412302857,1.8458085948543963,0.4067005937234946,-1.444585807181227,-0.917724609375,-0.115478515625,0.115234375,908,1023,1023,1022,1021,N
-9.477247058797674,17.932280186637406,-0.8500925090443604,2.407760814249364,6.65291914051456,-5.056827820186599,-0.1875,-0.970703125,-0.262939453125,1023,859,1023,1023,1023,G
-72.26588561676489,67.92336737583331,-41.12637255327455,0.4775741372638685,-0.1423646533225455,-0.1203081577373632,-0.82275390625,-0.512451171875,-0.0986328125,715,1022,1022,1023,818,O
-50.20194497040753,64.87081445174577,-34.75185073875148,1.6063199005858353,-0.3677614060003553,-2.3566838274454107,0.396728515625,-0.259521484375,0.723388671875,403,720,1023,1023,924,P
-1.9822139773395129,18.94198539278024,-2.0145582329809346,3.844913900230783,-2.393396058938399,1.1851233800816614,-0.887939453125,-0.3251953125,0.094970703125,879,1023,1021,1022,917,D
-15.296210705463723,54.273830076137365,-2.8966208391703043,-1.7202431439072656,-0.5922391857506362,0.8604396381113943,-0.96142578125,0.027587890625,-0.057373046875,1021,1023,1021,1022,1023,S
-69.30878313053908,59.84224770123566,-38.511792494025016,0.156241164828951,-1.5073862029968907,-0.6166595985298275,0.41455078125,-0.267822265625,0.71923828125,668,538,834,777,728,P
-12.824962802382558,40.27338201617906,-5.452404725794259,-6.550181165793084,-1.3394660006332006,0.4394061983325709,-0.31005859375,-0.931884765625,-0.001953125,749,907,1000,1022,1023,H
-8.176770996018968,22.531656815324546,-0.8834449805127997,-1.2434175264495608,0.0666069503932922,-0.4435622351737672,-0.941291517452639,-0.1451929659184725,-0.0502596289386136,688,708,995,1023,743,D
-59.5563072398661,58.10218374560896,-31.99756361372379,0.0700098953915754,-1.0203915747808878,2.022618037885213,-0.923828125,-0.190673828125,-0.025146484375,1021,1023,1022,910,1022,M
-66.957249193661,70.39372801596063,-17.03101612051628,-0.8455341752559176,0.8430013719351321,0.937981496464628,-0.846435546875,-0.2890625,0.140869140625,565,481,1022,1023,1022,L
-20.81793022716429,54.5541683953188,-8.578071432198854,-0.1248232965790215,0.2474554707379134,1.234485439638112,-0.932373046875,-0.19873046875,-0.055908203125,989,1023,1023,1023,909,M
-43.78201742319135,53.01151411484905,-10.713564146700811,1.1392334608153558,-1.393465089235642,-0.0526262380200828,-0.2341667036029304,-0.946109841360348,-0.2924334713786171,984,946,1023,1022,1023,G
-49.99306275700249,64.65111117748401,-34.82098458204406,1.86586188531866,1.7696431741523164,-0.6925616900408302,0.398193359375,-0.250732421875,0.730712890625,404,719,1023,1022,925,P
-84.47424311855748,83.60360751498904,-52.3170097847937,2.979491328666409,-2.224328983009112,-2.273015091286452,-0.920654296875,-0.230712890625,-0.040283203125,659,1022,1021,944,563,Y
-16.827339983421254,50.05986953783519,-6.528827625884991,0.0354820469324288,-3.584605597964377,-0.6586443313542547,0.478759765625,0.0029296875,0.74658203125,1021,644,1023,1022,1021,Q
-93.87956754646186,78.14709272374823,-55.98846843976557,1.9395877922657396,0.7059350873267571,-0.7939677518740087,-0.8236099432529793,-0.5008243177969961,-0.1203029019485654,886,1023,927,1023,379,J
-96.55157501791616,77.34629491726082,-58.48755141902282,-0.0663101980511482,2.386358039891652,0.0017940690188915,-0.344970703125,-0.909423828125,-0.018798828125,737,724,428,1023,1022,H
-103.98362952164226,76.72836169424461,-70.27289350278211,-3.3206810426707003,-1.1382488479262671,-0.6934956203609242,-0.9306640625,-0.217041015625,-0.242431640625,846,1023,1023,1023,795,Y
-34.4391853594434,41.78169280578333,-15.252929672223368,2.3169352558665537,-1.0506785411365565,0.7844925077749506,-0.807373046875,-0.5498046875,-0.162109375,923,1022,1004,1021,1023,J
-23.05742259229406,40.81648942898705,-10.027280668774043,4.706792837795055,-1.2359024870721498,3.534984345868364,-0.978271484375,-0.037841796875,-0.1796875,729,1023,1023,1023,645,I
-3.590624512898442,29.55414700993345,1.7803135330849469,1.921227108196252,-1.5769988890083508,1.4390208938107008,-0.905517578125,-0.211669921875,0.07421875,1022,1023,1022,1022,1022,E
-1.714279814811732,3.322599016176865,-0.2956637399858791,-1.8975826972010177,1.439178682499293,0.9966072943172184,-0.77685546875,-0.29541015625,0.3154296875,1023,767,492,862,837,B
-35.95333558351638,57.5598630098073,-24.391150345220144,-0.8041419281877301,0.2734662143059086,0.6075063613231546,-0.892333984375,-0.25537109375,0.092041015625,1023,919,1023,1020,869,L
-8.209607875265952,22.66981892306013,-0.8959388930948149,-1.404933559513712,-1.0399703138252756,0.926562058241448,-0.926025390625,-0.15283203125,-0.074462890625,690,709,996,1023,741,D
-61.5394341503592,51.702413567213085,-2.091243077336012,1.9783304604777148,1.8844760263130125,2.734442607380307,-0.86181640625,-0.319091796875,0.24072265625,706,841,278,1023,1023,K
-61.45690681749605,51.98436291108562,-1.841843745360933,-4.029303127308545,-0.5048369507862243,-0.8228093010166393,-0.81103515625,-0.329345703125,0.182373046875,706,913,280,1021,1021,K
-71.81977065632599,71.91915908867287,-22.13722565227258,0.5361452140570595,-0.1951665669961656,0.4112639392127195,-0.905029296875,-0.260009765625,0.011962890625,968,1023,873,773,1023,M
-64.73881447298722,59.66081671853248,-4.3035783789993545,-5.853730608224575,-2.672775882083934,4.368030393639849,-0.214111328125,-0.73291015625,0.49658203125,817,636,1023,998,1022,P
-67.61311894545194,69.30489795647829,-17.725754299502505,2.765152847644845,-0.2486016814999824,1.4265311147852386,-0.833251953125,-0.377685546875,0.123291015625,473,470,1022,1021,1021,L
-36.11155438339453,58.228556578160806,-24.311841958891844,-7.743511450381673,-3.2457660216580857,-1.1497248357891,-0.930419921875,-0.12841796875,0.042236328125,1021,1022,1023,1021,1023,M
-11.182781436862816,18.03726835138333,-1.319280874092051,-1.225826972010178,-1.3852487984167374,-0.6751484308736215,-0.18408203125,-1.0224609375,-0.214599609375,1023,889,476,1023,1023,H
-60.56109341915756,57.791175751332,-1.2649476772847543,-3.1667077074612164,1.624934041580188,-2.700671896436486,-0.884033203125,-0.273681640625,0.15087890625,1023,1023,1023,957,1023,M
-101.94576171195092,76.70739172014679,-68.30923652466426,-0.4046505083195553,-2.3138213670102368,-0.2125795898265731,-0.929931640625,-0.249267578125,-0.229248046875,845,1021,1022,1022,819,Y
-101.52308924632996,76.81734669120397,-68.16396080278612,-1.7844218264065588,1.389171614362454,1.675996607294315,-0.780517578125,-0.384521484375,0.239013671875,980,986,1023,1022,973,X
0.3326055932293957,6.655211392164173,-1.390862124945398,1.4810587144182064,0.9432831561675108,-1.1752871513162582,-0.88330078125,-0.091064453125,0.21826171875,1023,874,972,889,530,B
-96.05504856469928,77.83818804857162,-57.98324847169284,0.2466669011854929,2.134449642945087,0.1315650613853036,-0.360595703125,-0.903564453125,-0.04833984375,737,727,429,1022,1022,H
-60.55618461175349,68.04025755232378,-5.790118355668915,2.3453055194005707,-0.4012734372251733,4.373096000281421,-0.0126953125,-1.00390625,-0.1318359375,879,817,385,827,1022,H
-32.76458452156103,42.66908537644286,-1.1679898360437868,1.3314249363867685,4.874293186316087,0.3477523324851571,-0.65478515625,-0.5830078125,-0.60986328125,1023,1023,1021,1022,648,Y
-25.68969471155844,38.73663682080271,-10.941000476447412,-0.3052028001547819,1.6757659971154186,-1.0510078446547295,-0.163818359375,-0.973876953125,-0.25390625,442,761,808,1023,1023,H
-0.777660408013665,1.471143792424764,0.072374184781724,0.1884827804552009,-2.77549512787139,0.3044288880289864,-0.854736328125,-0.368408203125,0.080078125,950,473,460,1023,1023,U
-59.61108911018879,68.39151244054844,-4.662041747171517,1.884574554051878,-4.818898613897716,0.3911153192212202,-0.0877674272006699,-0.989379206320402,-0.2608559144099577,740,610,1023,1023,1022,G
-60.36605187597873,55.20378052984733,-0.526587836223968,-1.3523979073855967,0.3062864759344381,0.5051259417139172,-0.8243579106943291,-0.2827123728514223,0.1983029137939277,471,554,1022,1022,1022,L
-73.29952530358378,73.14974027419831,-23.758691847169448,-1.0669082210574443,-0.3325711471488374,3.647905160586765,-0.91650390625,-0.239501953125,0.0576171875,844,1022,1004,847,1022,N
-68.3034579387749,68.67997926950513,-18.51368329456795,-5.1203433355612615,-4.0195940479121965,1.0753860766172998,-0.92138671875,-0.2490234375,0.029052734375,996,1023,903,801,1023,M
-54.33769755395849,66.82397245935523,-31.625313712633048,2.404580152671756,-2.8802525504744243,2.1741456802454167,-0.964111328125,0.02294921875,-0.114990234375,1023,1023,1023,1021,1022,T
-26.84211138207996,39.97674752466244,-11.670672432633278,-1.5225256896224897,-1.4154323029069202,-0.928108618713318,-0.9531019426902552,-0.0712972199668995,-0.1400490678627055,869,1021,989,1022,1007,I
-62.83600252933952,65.9623479854613,-8.85755140277771,2.3911070461181283,-2.1493650402786084,-0.7566749920849904,0.021484375,-0.994384765625,-0.1162109375,880,763,446,868,1021,H
-90.96182307002708,80.91044914160942,-52.93045034176498,0.0481936187427448,1.187884757448904,0.826221549934922,-0.373046875,-0.89892578125,-0.06298828125,680,808,1023,1023,1023,G
-41.78333050382015,61.719755288030285,-27.11893150014349,4.83321639759584,-0.4442261170743511,-1.4404733226385689,-0.9205952260960016,-0.1284958084305654,0.0835443980410662,908,1023,1022,1022,1021,N
-75.06022354810673,63.3711394775458,-43.49470269926348,0.829070953670806,-0.737397544587892,-0.8079290815070183,0.633544921875,-0.26171875,0.56591796875,939,741,1023,1023,1023,Q
-9.425948594304575,26.549403727958754,-1.2272218669120467,-10.077396098388466,17.052798982188296,-0.5270709640938647,-0.918701171875,-0.22412109375,0.016845703125,542,1021,1023,638,372,F
-111.2726295315503,73.88400325418726,-72.57314758139056,-0.1731804270587819,0.6535336124107359,0.8567559010799602,-0.8623046875,-0.379638671875,-0.38671875,740,803,445,1023,1021,K
-20.3959909649053,68.78847479567975,-8.939086786819441,0.5392988408255586,6.965012722646311,4.906241164828952,-0.943359375,-0.196533203125,-0.15869140625,1022,644,1021,1022,1022,W
-54.00461722826875,69.8715389395604,0.4558287040415996,-1.0592746332711849,1.6521616772786436,-0.3139269004819369,-0.885009765625,-0.24267578125,0.153564453125,979,1023,533,227,676,F
-59.07660616615422,68.4077621691498,-4.127880836922369,3.77709351924832,-11.794431670336962,0.707744252815608,-0.0785172473297795,-0.9907319267058828,-0.2478270693216923,748,589,1022,1023,1022,G
-14.423826627725308,61.89041841699689,-2.528290497181185,-1.0527408701752836,-0.9239302371010344,0.9608897878849902,-0.9527942912156478,-0.2082304163383342,-0.1914320494175312,1023,748,1023,1021,1022,V
-28.9651613281306,40.18412449522509,1.4012227191180122,0.2932569974554707,-0.5837220808594856,-0.2782018659881253,-0.889892578125,-0.2294921875,0.32763671875,1021,712,369,367,1023,W
-2.265385570487163,2.918278060412719,-0.2850731106018473,0.2237901813852509,5.614678899082568,-6.663771972827229,-0.60986328125,-0.518310546875,0.3798828125,1021,558,1021,994,1021,Z
-53.64426012367748,64.19106448983331,-31.068759649132662,0.0239963245688435,-0.0364009047215154,0.8472575629064185,-0.94921875,-0.0830078125,-0.052734375,1023,1023,1023,1023,1022,S
0.2265155455595076,4.5729538184839695,-1.0376187707617632,-0.6598970353275344,-0.7592046866678497,-0.1995384342268773,-0.965087890625,-0.0859375,-0.01904296875,1021,849,1022,940,545,B
-84.2638356797881,83.86523140323483,-52.10754465369847,0.2543004889717525,0.1115488795863084,-0.8226334118971388,-0.911865234375,-0.204833984375,-0.055419921875,657,1021,1023,941,559,Y
-60.97612262749837,65.27297184928544,-20.85437400632812,-1.2730150912864522,-1.5921131318816617,1.021950962113483,-0.6162109375,-0.525146484375,0.37939453125,1023,1014,1023,894,1023,X
-38.060442869849965,48.07278490851931,-6.90309297314816,-1.983501600590988,2.014247018679425,-0.1128856368945021,-0.814208984375,-0.425048828125,0.18212890625,1023,1023,1023,883,1023,C
-44.293320336458834,67.76836579264717,-1.76466926631938,-1.6012593660956125,1.8811693108664296,0.3959967636402004,-0.885498046875,-0.253173828125,0.197265625,1023,1023,1022,982,1023,S
0.263107651865449,1.0467739674108605,-0.2288238376333667,0.1852654003195448,1.2779691105982611,-1.2764778981004792,-0.9609375,-0.1318359375,-0.18310546875,900,1023,1021,1022,1023,A
-3.5666394995646784,26.05646133859264,-2.191802974035586,-6.898430873621714,3.851145038167939,5.138040712468192,-0.94189453125,-0.17626953125,-0.119384765625,1022,1023,1023,1021,1023,E
-74.47477023258924,79.09567115618917,-37.60296722435675,-1.3182185949977132,1.1726175818763849,-0.4256868470116428,0.531005859375,-0.273193359375,0.664794921875,783,950,926,944,1023,Q
-7.715222392426694,18.83400438063525,-0.9775384944035784,-1.3343514206264924,0.161906486868846,0.0173201224232557,-0.8119865705161469,-0.4138382752054577,0.1526475972444291,561,955,863,891,371,C
-24.69568086925837,27.58428502520189,4.025736290046446,0.7741730279898219,9.01933135425502,8.401187446988974,-0.916748046875,-0.109619140625,0.15380859375,1021,883,400,1023,1023,R
-89.75545763683392,78.52919264930264,-57.79343643068949,-0.3270130509726671,-2.019418158792697,0.0758082105040984,-0.94384765625,-0.191650390625,-0.038818359375,751,689,1023,1023,976,V
-18.104049626042343,38.634231104846464,-6.12040420567828,0.9337249797727514,-0.9610581489429064,-0.1256551869701339,-0.23974609375,-0.92919921875,-0.446044921875,642,898,1022,1023,1022,G
-48.450855049109,70.09238130151992,-26.04313220223809,0.1918693413811469,-0.3993964139889933,-0.1784129238416473,-0.932373046875,-0.1630859375,-0.010009765625,929,1023,1023,1021,982,T
-0.6183589130926741,1.8959474385225303,0.617584464795516,-1.3345469680823594,0.1708867194429031,0.7243823928785895,-0.934404052342062,-0.2330797030237596,-0.204109414484341,698,1022,1021,754,691,Y
-86.68788103571778,68.40639703289618,-47.52453176712304,0.3872632174158891,0.4321812270285554,-1.0860899067005936,-0.916259765625,-0.251220703125,-0.00146484375,878,823,1023,1023,1023,U
-95.13036779825832,73.8188275513255,-49.43286197329089,1.836952422902196,-3.597222222222221,-1.83536209211339,-0.3374649312585925,-0.3942480892828925,0.6800921667669126,894,537,1022,1021,996,Z
-62.353924810541216,66.59639844437426,-24.374381555400195,0.1850001758891204,-14.28676962043128,23.670805923945544,-0.53125,-0.3603515625,0.613525390625,973,472,1023,1023,1023,Z
-74.82181283254641,85.26806814056906,-38.55586259107535,1.9565905653076303,2.836739719280965,-1.3798853202940855,-0.917724609375,0.04833984375,0.112060546875,1023,1023,1023,1021,1023,S
-0.6957862938902751,10.556038500815973,-1.5720204022864976,0.2150959549118928,-1.183955197260469,-1.213847470928159,-0.883056640625,-0.32373046875,0.0654296875,786,1023,1023,1022,1021,A
-25.09131562230436,72.4797628001896,-12.885687965078974,-0.4072660446706245,0.0718829516539439,1.0131113938365852,-0.9130859375,-0.23193359375,0.010498046875,1023,1023,1023,1023,1023,X
-101.6624181442073,76.81004088197531,-68.38655795966312,-1.3722080859485437,2.328102912072377,1.5385920271416436,-0.78662109375,-0.390380859375,0.247802734375,980,984,1023,1022,975,X
-103.08632183679924,79.60456513828092,-64.48804836507688,0.1761379700310996,-3.389913768730562,1.3388464800678546,-0.828369140625,-0.247802734375,0.25634765625,1023,1023,1023,1023,1022,X
-108.80491382381412,76.28544069740046,-74.82191174816712,-0.9542688289302422,-2.0161114433461145,-0.7774650860097791,-0.923583984375,-0.205322265625,-0.228515625,852,1023,1021,1023,773,Y
-53.0027917951516,67.3596792088053,0.5778814613018148,0.6964505575685098,1.4994899215534527,2.1135540155485977,-0.78369140625,-0.216796875,0.345703125,1008,1023,557,322,656,F
-35.57041293702255,44.04084688936238,-5.464762593844084,-2.0010065819431384,-1.779000262560416,0.5144365898935548,-0.8429231871408697,-0.247344158927342,0.215087890625,513,1022,1023,1021,1021,A
-47.523916258610015,61.81456922436794,-33.8809503429201,-0.7223062581348715,-0.3756991592500088,-6.057937875962994,0.605224609375,-0.2314453125,0.63818359375,283,689,1021,1023,1021,Q
-0.0352441255121089,0.068285482067585,0.0021323705183939,-0.0771097899883914,-0.3466422767087628,0.4356069933513912,-0.929931640625,-0.239013671875,-0.124755859375,1022,1022,1023,968,1021,S
-60.06985115348745,56.0495208213443,-1.313282725301772,11.87146023147008,-0.1613255004045448,1.8260456608154216,-0.949951171875,-0.23388671875,0.1591796875,1023,1023,1022,986,1022,M
-0.6757409216563004,1.4829083907671008,0.3296818626449477,-0.1209118285594228,0.9347643392394424,-0.4468100007003284,-0.857666015625,-0.39404296875,0.021240234375,707,406,1021,1023,1023,L
-104.07845894240744,79.542008771021,-65.43765247180043,-0.0452360757704268,-2.3746465931580425,1.5144189991518242,-0.830078125,-0.25048828125,0.254150390625,1023,1021,1022,1021,1023,X
-61.827225498702326,63.55443321528226,-32.11699402172171,0.0325394871073275,-0.3109016076265521,-0.1022267562528573,-0.93017578125,-0.14697265625,-0.0009765625,1023,1023,998,966,1023,M
-3.079446152950948,10.388218073346351,-0.6058821409524672,-1.5411404650508316,-2.2637985014247017,-0.0553347169944065,-0.821533203125,-0.329345703125,0.22265625,1022,1023,1022,1022,1023,E
-8.010246349027186,20.87633324204341,-0.9423719756207484,0.8708622084637839,0.3950821402188058,0.8982657332817388,-0.951416015625,-0.167236328125,-0.041015625,682,659,1023,1023,917,D
-28.310423655094525,38.53790866323292,1.7717829008892911,-0.3968803693221758,-1.035402083729495,-2.045864270557142,-0.8422094439812359,-0.2149730695732081,0.2944454964230954,1022,711,378,389,1023,W
-68.26730273494462,59.31021609943343,-37.38231237838625,-0.2559725756290641,-0.637157195363303,-0.2960489115069267,0.427490234375,-0.27880859375,0.71533203125,655,539,829,775,727,P
-4.465314185922193,34.864856037881545,0.8589020973861565,-0.8108919988690979,7.810785976816511,-2.0377438507209504,-0.919677734375,-0.12646484375,0.100830078125,925,1023,963,943,343,F
-64.65679359040135,84.58717533507114,-28.27957288660589,-6.615928518661836,3.1726175818763847,-0.1737784500650778,-0.90478515625,0.090087890625,0.143798828125,930,1023,1023,999,1023,T
-0.1316834112974698,1.2795274725253114,0.5860011043973943,2.1696352841391007,2.2258976533785693,1.1856092733955326,-0.927001953125,-0.224609375,-0.200927734375,714,1022,1021,768,724,Y
-43.78278826470982,70.19018124898776,-1.5221216299485425,-1.853167763042177,2.1559784711717733,0.5105005804340936,-0.88427734375,-0.26806640625,0.12255859375,921,1022,1023,906,1023,T
-63.44248173515789,65.5724145844593,-9.513704538169542,-0.231744365473825,-0.2501123669748213,1.6515966917834517,0.0382549610215043,-1.0188310383784511,-0.114904380520354,875,756,440,873,1023,H
-58.41239352587603,61.03203595665777,4.02574915011077,-0.4867555493017192,2.4842227459809334,1.7471418018081395,-0.883056640625,-0.251953125,0.062744140625,507,1023,1023,1023,1023,A
-57.476892613548095,63.36190888561147,5.1499005107267095,-1.143806944102438,2.76233862173286,1.4825342104337422,-0.703857421875,-0.22802734375,0.364990234375,972,732,469,1023,1023,V
-20.82715019312969,56.5800533803333,-8.729046648154537,-0.7965790217698613,1.171119592875318,-0.0937588351710483,-0.93701171875,-0.1953125,-0.063720703125,1008,1023,1021,1023,1022,N
-0.7679116259856246,1.6748359215850106,-0.1805424366792795,-1.1647582697201018,-0.0493709358213177,0.2408821034775236,-0.87939453125,-0.287109375,0.13623046875,659,1022,1019,1019,1015,A
-86.62259698765571,69.43720114663019,-47.64375598087393,0.005583828102912,-3.773925643200452,-1.1929601357082271,-0.9150390625,-0.25341796875,-0.012939453125,876,821,1021,1022,1021,U
-20.77771384277749,54.8147160921034,-8.533973550222651,0.1576194515125815,-0.8212468193384225,0.3260884930732264,-0.937255859375,-0.197509765625,-0.053955078125,1022,1023,1021,1023,1023,N
-73.76666090187373,79.1119780282479,-36.898701809191344,-1.0586766102648888,1.6459000246244764,2.7575192598585865,0.534423828125,-0.265380859375,0.6611328125,791,948,923,941,1023,Q
-129.84916270396667,75.30401262711962,-101.46482317180296,11.83464093864857,8.939779474130617,5.776929601357083,-0.745361328125,-0.629150390625,-0.0810546875,737,712,1023,1023,1022,Z
-3.143451828557301,1.4581303161285482,-0.3444339931007745,-0.6812355760695901,1.5862240369252607,-0.0349724835789102,-0.387451171875,-0.663330078125,0.459716796875,824,290,377,465,145,B
-20.84850361341661,70.15385255584405,-9.323577876574062,0.7454057110545662,1.1787531806615776,2.219218264065593,-0.938720703125,-0.175537109375,-0.157470703125,1021,737,1022,1023,1023,W
-60.650585666463925,64.39468829396294,-21.647158593367624,-1.3188166180040093,-2.492876490660288,-0.4284307172758299,-0.890380859375,-0.3701171875,0.013916015625,528,1023,1011,757,568,Y
-15.243125566323762,53.79930547214639,-3.005294783481441,2.5392988408255586,0.9115776081424936,0.448225897653379,-0.953857421875,0.0615234375,-0.02685546875,1022,1022,1023,1023,1023,S
-96.61902804274597,76.66521915947929,-58.60129627955549,-1.9976079079748124,-1.1861610440778136,2.0094276568051512,-0.801025390625,-0.5458984375,-0.1083984375,887,1021,921,1019,375,J
-34.848927564662496,77.80468517219363,-22.865549227205747,0.0049476957873906,2.46882951653944,-0.7960489115069265,-0.935546875,-0.177734375,-0.33203125,1023,1023,1023,1023,356,Y
-38.08168411277264,48.372263767432095,-6.8613392232478505,-1.360943360411353,-2.561417890275365,1.3539759986939792,-0.8665986076481744,-0.2767900102598706,0.1214181371697973,1022,561,1021,1022,1021,D
-3.172821161629344,31.144296014952683,2.611202328254039,-0.4001979078314961,1.6884011874469886,-0.8702996890019791,-0.911376953125,-0.15380859375,0.079345703125,678,1023,1011,1017,451,F
-16.541921779214857,40.11442236340597,-6.933396586040691,-2.3785444686687267,2.9099897111618622,0.9352510583393868,-0.3097871647356679,-0.9236806056262394,0.0204805241106679,738,884,989,1019,1022,H
-1.6755150651421342,1.4564216685571632,-0.1027529624811502,-1.111225545903841,-0.524238270936308,-0.5296801242790914,-0.7164114398627045,-0.5079507976013743,0.2375962582894316,1021,873,1021,1023,1022,X
-40.03420259786768,59.89233454366624,-25.272879689423085,-5.354198473282437,-3.1007278537191545,0.3082904313864723,-0.938232421875,-0.1025390625,0.027587890625,1019,1022,1022,1021,1023,M
0.3202355311354176,5.913712127520936,-1.3218620431287054,-1.1296283084825571,-0.1635870728401227,-0.7172718841406854,-0.88525390625,-0.064208984375,0.199462890625,1023,877,971,889,532,B
-35.33699446523129,49.33065026475885,-21.6684556997516,7.295282653815033,3.427093959967637,2.3414007809476933,-0.9033203125,-0.28271484375,0.005859375,1023,1022,1023,1021,985,L
-60.30025710899409,64.86213804935375,-20.19910828334892,-1.010042489900033,0.935164350006548,1.3652371316517584,-0.5829201191579394,-0.546630859375,0.4186791457879539,1022,995,1023,914,1022,X
-20.509109591091708,56.20589804543194,-8.387909608560376,-1.682075204975968,3.3772264631043254,-1.284598529827537,-0.9287109375,-0.174072265625,-0.036376953125,1009,1022,1023,1022,1023,N
-0.4821403466456363,2.1417178985918044,0.0673873174611377,-1.4514418999151824,0.3810432569974555,1.0836160588068986,-0.9609375,-0.12353515625,-0.180419921875,838,1022,1022,1023,1022,A
-27.930719437751232,37.48678282464609,1.939967551964864,1.5114584664238566,-0.1619150616319538,0.2870415516984301,-0.840219922768322,-0.2116559396761405,0.2715460604199737,1022,712,474,1022,1022,V
-1.9894028592749364,7.9175643339673565,-0.2701307563796015,0.2756534280789392,0.3621556970485805,0.4484820768987233,-0.857177734375,-0.366943359375,0.10546875,937,434,1022,1023,1022,D
-4.200914619961274,39.33512143242897,0.2642161148715414,0.8455965507492227,5.497808877579871,2.565309584393553,-0.931640625,-0.106201171875,0.083740234375,915,1021,955,933,345,F
-90.92144015106028,77.5167721141762,-49.268867938251255,-4.975394993786614,2.330197053080064,0.5588851411326103,-0.933349609375,-0.224853515625,-0.003173828125,1022,1023,1021,1021,493,Y
-72.11906485220041,67.94780205181632,-40.97679542989517,0.1569634502409677,1.346184964998065,0.1697681781404992,-0.814208984375,-0.50927734375,-0.083740234375,719,1023,1023,1023,818,O
-95.52718935408224,79.83673624977793,-56.972660619556144,2.069267741023466,-3.786860333616058,1.132739609838847,-0.826416015625,-0.268310546875,0.275390625,1023,1019,1020,1022,1023,X
-62.64219225307015,68.38338075627321,-8.340360607849053,-3.1432440989200394,0.8735357230801702,-0.8406444577338452,-0.908935546875,-0.1708984375,0.09716796875,1003,1023,931,842,537,I
-105.1122216699914,86.06574460686862,-73.88606334587777,-1.188447602631301,2.737503078059591,-0.4714883737291999,-0.93359375,-0.12451171875,0.075927734375,911,599,329,425,1015,W
-56.00339005687492,65.54057074174672,-0.1886952162953152,-1.6009401339685925,-2.1192720174589543,-0.1756749560295512,-0.8035755286758176,-0.4767873972209325,0.0784468667311769,1022,626,1021,1022,1022,D
-67.16136617219837,72.28550870330186,-36.22524839662535,0.6203609244732119,0.3546628205579203,0.9894466528300552,-0.927734375,-0.174560546875,-0.017822265625,803,1023,1023,1023,1022,T
-112.98931775930932,75.75193960103951,-72.89657974918677,-0.0725190839694658,2.0350932994062765,1.0068207520497596,-0.861083984375,-0.198486328125,0.238525390625,924,467,736,825,1022,W
-55.36492744448802,69.05474059921703,-0.9050910500264832,0.910191015583777,-5.447074963942731,4.434164702571499,-0.891357421875,-0.212890625,0.121826171875,980,1023,533,227,682,F
-1.6025062399824763,7.169488204363964,-0.2397148661680525,-2.7873197625106023,1.3352417302798982,-1.908750353406842,-0.953125,-0.10498046875,-0.240478515625,1021,1012,1022,938,403,B
-28.251483905131145,42.00940872736989,-12.275662205844544,-11.312553011026294,-1.2621925360474977,2.270426915465084,-0.948486328125,-0.11083984375,-0.166259765625,854,1023,1021,1021,756,I
-0.0397261474863941,0.0646428918842662,-0.0112294331732289,-1.0197201017811703,-0.2173098671190276,-0.8125530110262933,-0.88525390625,-0.27392578125,0.12841796875,683,1021,1022,1023,1023,A
-1.9937378353175037,17.877644880668157,-1.6808072788367965,0.2519494025183319,-0.5658355666327297,0.5736409514083323,-0.8069814680858617,-0.155339651673567,0.3479058625506209,952,837,891,981,493,C
-10.2318328520858,40.16300036614179,-4.563188495832975,2.55470737913486,0.924476957873904,-2.768377155781736,-0.3671875,-0.896728515625,0.000732421875,851,855,1023,1023,1019,G
-62.18078419177476,59.52197635975847,-0.4730368023319693,-2.9987687761635065,-1.8712491645266824,1.2611601646322157,-0.91845703125,-0.2958984375,0.149658203125,1021,1023,1023,1023,1023,S
-43.04636675275969,69.91029798343351,-0.8476047701272749,0.475076511766983,-0.0653955746297534,0.4494318781440174,-0.87451171875,-0.252685546875,0.1435546875,922,1023,1023,905,1023,T
-23.133835885933063,43.26224021098472,-10.40769027688599,-2.896652214669326,-1.797009576063051,1.4612812111517064,-0.9568780982441756,-0.0700861425309375,-0.0226251841885021,844,1023,1022,1021,536,I
-106.01221899664196,73.78531487033655,-67.33613760805123,22.704682168361067,-10.40753508987934,10.2079009392479,-0.862548828125,-0.26416015625,-0.0380859375,971,1021,1023,701,1022,M
-88.52116477999705,88.89374956519652,-56.51154190333335,-0.9441727934709956,0.1497168185176062,0.0170612445914106,-0.97314453125,-0.058837890625,-0.149658203125,821,854,369,1023,1021,U
-47.381445745233336,52.68608177661731,-13.57331180777594,-0.8431604606249767,-2.859470337295132,0.9779585790266102,-0.2300593615294107,-0.9503471146057976,-0.3333769646930794,998,848,300,1022,1023,H
-64.21119606031777,65.23269045186251,-25.832284207468227,-4.036373869912406,-7.79822000211067,-2.466598656207128,-0.842041015625,-0.40185546875,-0.059326171875,644,1023,1019,801,639,Y
-62.85172150396943,65.9149332001897,-32.90355067507055,0.7886627085100368,-0.8201512581283575,-0.2722999717274524,-0.932861328125,-0.134521484375,0.0029296875,1023,1023,997,1023,1021,N
-62.26324704961403,66.37691242934025,-8.10593483977204,-0.0745418088437039,-0.8134871776831885,1.189889893411193,0.033203125,-0.99951171875,-0.11279296875,879,770,446,867,1023,H
-2.455006922362441,3.809302732055672,-1.2894358551930931,0.2314237691715105,2.698648364731423,-3.282092583514252,-0.592041015625,-0.559326171875,0.38330078125,1021,550,1021,995,1021,Z
-15.944115084303416,60.34274691830576,-2.199293302756942,0.9362454057110547,-2.3555979643765905,0.8909739892564326,-0.9384765625,-0.1591796875,-0.35400390625,1022,1017,1023,1021,1023,U
-97.35366740249567,76.65722291632115,-59.47750521306444,0.4680409469870197,2.3634572765328734,1.276603229324235,-0.88427734375,0.024658203125,0.25537109375,910,1023,917,1023,582,I
-95.73193314735884,78.06661607975192,-63.635623539829865,-0.0506912442396313,-0.2512751961163682,0.6918774404615333,-0.936279296875,-0.22119140625,-0.11376953125,883,595,1023,1022,1023,W
-1.2579727226917552,3.714736165640237,-5.759600792001462e-06,-0.5175361452140568,0.974320188553136,0.3854082386463575,-0.9072265625,-0.321533203125,-0.111083984375,531,1021,1023,1022,1021,A
-8.318213076353839,24.28717865361764,-0.8743002503075263,-3.2529686174724346,1.7779898218829515,-1.7179106587503532,-0.93701171875,-0.26171875,-0.248046875,722,1022,1022,1023,715,F
-61.31372137253771,52.10539129238315,-1.722608985986095,-2.5941886234917506,-4.634607943152637,-3.425862736131143,-0.808349609375,-0.330322265625,0.19140625,715,899,281,1022,1022,K
-13.113456117989193,42.29852446277758,-4.095469820482849,0.9438789934973144,-0.1265903307888041,0.0054778060503255,-0.94873046875,-0.172607421875,-0.166015625,661,747,1021,1023,982,K
-20.663928510490223,54.34935199676401,-8.380150727213792,0.2721232683064746,-3.294529262086514,1.3718900197907835,-0.938720703125,-0.185302734375,-0.04931640625,989,1018,1023,1023,909,M
-94.69107963261048,78.79291977223627,-56.684418497925336,4.842086748513737,5.622999261265698,2.383473458331869,-0.38134765625,-0.897216796875,-0.044677734375,725,772,453,1021,1023,H
-49.17709480890544,53.804808341355525,-14.595972737892932,-1.6781580891406058,0.6478348049389666,0.8489464241742002,-0.890869140625,-0.18505859375,0.10888671875,1021,1022,779,959,545,I
-54.05336480475256,67.34669285899167,-0.3570451498134612,4.86438948886622,0.4918563337671931,1.8921799697470707,-0.798095703125,-0.2626953125,0.3310546875,1005,1022,570,446,648,F
-60.8090940046001,65.03763784472788,-30.47404394800888,-7.035564780000225e-05,-0.894536883948359,-0.0434094346923699,-0.962646484375,-0.098388671875,-0.06396484375,1016,1023,1022,1022,1023,S
-31.34546504176209,49.11971284594773,-17.312037919960893,1.0340330788804066,-6.75031806615776,-1.5443878993497315,-0.9892578125,-0.1513671875,-0.28515625,703,804,909,1022,1012,K
-15.365410055511818,48.7367110504318,-4.9672048118238745,-1.117189708792762,-7.210559796437659,5.43295872208086,0.477783203125,0.017578125,0.7109375,1023,669,1023,1023,1023,Q
-21.168080145934294,39.371466823918446,-9.585130567179643,1.7979052014912127,0.394638736019883,1.3599147878572693,-0.315673828125,-0.77392578125,0.33251953125,802,643,610,1023,1023,H
-21.27545748856637,70.7739397191844,-9.55385041676026,-1.567571388182075,0.8276081424936387,-0.4678046366977659,-0.90478515625,-0.201171875,0.079833984375,1023,1006,1023,1023,1022,X
-47.03816985722976,54.60629257323983,-13.481378963611894,3.527869622878113,-11.85934435594292,-4.557438828814084,-0.7253924303005272,-0.3029383401909158,0.4182771169362095,1022,1023,787,1022,561,J
-63.353514984966125,65.6728856849979,-9.419806084051004,0.2766032293242351,2.0185738910191016,2.0753860766173,0.03076171875,-0.99072265625,-0.094482421875,879,753,439,868,1021,H
-59.97440867846717,80.5330970141495,-21.928172780420947,0.4222394202694624,1.2489534597389802,1.3987406339043875,-0.905029296875,-0.114990234375,0.127197265625,1021,1021,1022,1023,1023,E
0.3165931546421473,1.5098501092387349,0.0207184029641894,-1.4401801104583674,0.5058571076793189,-1.2977099236641227,-0.908203125,-0.222900390625,-0.05224609375,720,1023,1023,1021,1023,A
-63.11216943465756,68.19613156987336,-32.47531242637208,-0.086256024202343,2.123052028001548,0.3256059380166752,-0.952392578125,-0.08203125,-0.07666015625,1008,1021,1023,1022,1022,S
-131.95108628058722,71.46174597341874,-113.46306330113693,-0.2966897667710276,-1.2369929996130438,-1.3461497871741652,-0.677734375,-0.691162109375,-0.105712890625,850,751,1023,1023,1023,Z
-8.804179694722693,40.61848682628041,-3.831250238592432,-1.8880407124681933,1.7870723777212325,-2.3790641786824995,-0.339599609375,-0.915283203125,0.0087890625,855,859,1023,1023,1021,G
-68.82391459213564,75.82349479090955,-37.94131691747624,1.3826643683821722,-0.5764590002462446,-0.2177859077637458,-0.905029296875,-0.13671875,0.135986328125,709,893,1023,1023,1022,U
-104.122548793915,86.2756684239026,-72.90881333819834,0.0023920920251876,0.9817778872198962,-2.0287402821261464,-0.91845703125,-0.1171875,0.11328125,913,607,340,432,1021,W
-64.92368485777135,76.43723195195477,-34.05373489030073,-0.3592029032766285,-0.4840305262989548,-0.0026354993671167,-0.901600049169152,-0.1458871896178135,0.1234262077268684,700,878,1022,1023,1023,U
-85.44469930194786,85.77065201023306,-53.6519473869808,2.040560030956485,-1.2930312730854472,-2.845534175255918,-0.844482421875,-0.187744140625,0.268310546875,1021,1021,1023,1022,1022,X
-48.09693081656583,69.70240613684747,-5.323374764279316,-0.6984319441989024,-1.78208038705397,0.832132026175631,0.5922165904420478,-0.0455436541971587,0.6380925332054679,624,806,1020,979,1023,Q
-100.04200767247757,74.90003813913144,-61.60920198770046,0.8115523973686991,3.294754986456537,3.757519259858586,-0.837890625,-0.419921875,-0.422119140625,759,820,505,1021,1022,K
-2.005057942055471,17.97611199407772,-1.683991434372626,0.3861739316544197,1.0363843903831065,-0.0314974673610615,-0.798583984375,-0.145751953125,0.33837890625,955,836,890,982,492,C
-6.8183364683622205,21.889634916714392,-0.6802958503994772,-1.5506785411365565,19.335241730279897,5.770638959570258,-0.9013671875,-0.227294921875,0.10498046875,1021,1021,1021,1022,1023,E
-60.24775640533369,57.01871113627885,-1.0593803566584763,-0.1896084708199949,0.8157737362366766,2.8184120730291617,-0.870849609375,-0.26123046875,0.14208984375,1023,1023,1023,964,1023,M
-54.65881069605258,65.89073967987454,-31.97464828539948,1.184301668080294,1.1544387899349733,-0.3970172462538868,-0.9658203125,-0.0908203125,-0.05517578125,1021,1021,1022,1022,1022,S
-54.59901071713456,65.79907042082198,-31.902443216394527,0.7321366624187418,0.6830986620887536,0.0799097527052319,-0.9562180128990474,-0.0851889252543662,-0.0554377696927758,1021,1023,1023,1021,1023,S
-22.492859591898814,40.23441614771237,-10.120043585558491,-2.439321409197554,-1.170031156778373,-2.2980949253467333,-0.9553016330118346,-0.0403454879262796,-0.236846816615558,738,1023,1022,1021,670,I
-3.5943385411303503,8.319871788513428,0.08430349540676,-2.2203538889084324,-0.9261265698103912,-1.7699370316952192,-0.963623046875,-0.097412109375,-0.111572265625,1022,1021,1021,1022,373,B
-53.55584493329936,61.509405757679794,-31.262440836544886,-2.1390097738460443,-0.690447313975886,0.0721980452307904,-0.94580078125,-0.03076171875,0.010498046875,939,1023,1023,1021,1022,S
-41.3744112233484,46.85337863279592,-19.727216657745863,1.878710771840544,-1.2941051738761655,0.8398360192253318,-0.607666015625,-0.55029296875,-0.691650390625,520,615,658,1023,1023,K
-1.7831684647032788,-5.090390255776492,-0.8961553960013863,-4.52063179371724,1.60185738910191,-2.9952158159496247,0.6611328125,-0.177978515625,0.616943359375,668,383,942,831,1019,P
-111.40047902950104,73.86077354987115,-72.69098139237575,-0.8983712667534383,1.218419108593942,0.4903436873395022,-0.859619140625,-0.389892578125,-0.3798828125,740,804,447,1023,1023,K
-0.6943389564887233,3.515811200300434,0.1093651521430444,-3.856022052586938,10.12150127226463,4.579799264913769,-0.967041015625,-0.059814453125,-0.260986328125,756,1014,1023,1022,1023,A
-47.6041304884364,68.00075478587354,-3.555577998651154,-0.7131648787141086,-0.4110213549670356,-0.5703960509303387,0.6683021380846265,-0.0760616055644397,0.5927896019655773,643,703,1023,977,1021,Q
-11.119959090098352,18.05724106769036,-1.3045831441496027,-1.3059849175603797,-1.1543175743316332,-0.755306376423823,-0.1840209920778281,-1.0106193380986512,-0.2125242775211553,1022,888,476,1023,1022,H
-97.30037534078726,74.03185598700581,-51.45922788445316,1.2978159457167115,-4.436916878710771,-2.5099660729431728,-0.335693359375,-0.39599609375,0.67236328125,892,541,1023,1021,994,Z
-12.46520334209955,35.00392417429139,-2.733988382382721,-0.1560488268195726,-1.1986843493861468,-0.8312519787525945,-0.94921875,-0.151123046875,-0.064208984375,533,1021,1021,1022,443,F
-90.44574186614288,75.59652344967152,-55.4871584532576,-1.20371477820382,0.3787244521053924,4.34530551940057,-0.887451171875,-0.065185546875,0.16943359375,1023,1022,951,918,1023,M
-97.1030996114634,85.86028738825415,-65.75083760618023,0.4375065958419815,0.1039152918000488,-0.7310303584620246,-0.93359375,-0.13134765625,0.108154296875,918,577,335,367,1023,W
-101.89575098033148,74.29234397571697,-63.02065124482285,-3.2315521628498733,9.378392705682783,5.975367543115631,-0.8896484375,-0.19189453125,0.18212890625,981,494,581,814,1023,W
-79.67927952575438,82.77159047044438,-41.48203947339853,1.7293873068132468,-0.2185793200433501,0.6083278828800075,-0.9444601596867284,-0.1219971487762407,-0.007029019662031,654,1023,458,620,593,F
-49.34253269780216,66.14195017732351,-33.837547594103235,-0.3815380265761942,-0.4319338422391857,0.843370087644897,-0.919921875,-0.260009765625,-0.05615234375,756,1022,1023,1021,943,O
-4.6818703407676345,9.190146852338822,-0.0858084956820163,-1.2563613231552162,-0.1028060503251344,0.8897370653095846,-0.81884765625,-0.28564453125,0.2578125,1023,919,1023,992,1023,D
-69.77920388248019,78.33359926975415,-38.461440471271096,-1.8270397663442268,0.6127891190250844,0.6075546015921927,-0.9307651439861028,-0.1812010378272415,-0.0228783611739092,809,672,1022,1022,976,V
-3.323731887795596,-8.085611957143358,-0.9309438345779631,-0.0397157631828894,0.7163612058958033,-0.3845287930488619,0.570068359375,-0.21728515625,0.66455078125,639,701,1022,1022,1023,Q
-58.83953143276886,66.43701238682158,-18.179749026225902,5.101030710240265,4.644528089492384,1.7471418018081395,-0.821044921875,-0.368408203125,0.206787109375,975,533,379,278,1023,W
-31.821349286927504,42.04479938799157,-0.3138895792354848,-0.844147582697201,0.4849802092168502,0.4927905004240884,-0.656494140625,-0.563720703125,-0.594482421875,1023,1023,1021,1021,652,Y
-36.37154429841042,43.45540186505371,-16.21413289118494,-0.4396734520780323,-1.9238054848741872,0.2221515408538301,-0.859375,-0.446044921875,-0.265625,908,1022,1019,1021,1023,J
-0.8053134191243274,0.64295168702723,-0.0612359953682803,0.5419847328244274,0.6831173442215519,0.5561157464938755,-0.724609375,-0.47900390625,0.231689453125,1023,860,1023,1022,1022,X
-88.89474494033888,80.82492205419759,-56.86895780655377,0.0464576989418794,-1.181295908292768,0.2699560420628555,-0.8173069361050719,-0.3891006752607234,0.1866929450636505,907,766,1023,1021,1022,Z
-8.67792871179532,24.93326535694244,-0.9608225230734292,0.1468547977319231,-1.6962439683586197,-0.7852990692712734,-0.9255675357718862,-0.2603614880298912,-0.2636342019447713,707,1023,1022,1022,702,F
-0.1941298401317772,3.275784966731259,0.5462804855095271,1.2212339799705854,-1.0202395125709085,0.8329014636879344,-0.85546875,-0.341064453125,0.12646484375,1015,1023,488,273,516,F
-1.611535885005485,6.033542064695407,-0.156010238020583,9.603975556446883,5.360935189185561,0.3514146656941911,-0.8640223921809181,-0.332317375934461,0.0794893815933941,830,411,1023,1022,1023,D
-46.73618755151672,72.1102270324445,-6.049092733708065,-1.6852288317444677,-0.5386780173778449,0.9150807331058494,-0.88671875,-0.254638671875,0.12109375,885,1023,1023,911,1023,T
-62.64501220322811,59.19661368912392,-1.86378964133191,-3.647623737995567,4.785239385091638,-0.4792978506349601,-0.859130859375,-0.2919921875,0.2490234375,1021,772,401,1023,1022,R
-60.774621716979546,60.93996644196252,-31.05622248031672,-0.8911246350300771,0.5974953389383333,0.256551869701341,-0.931396484375,-0.1376953125,0.00146484375,1023,1023,1004,966,1016,M
-64.50313259208166,67.00998767646244,-34.04664981425969,-2.0984979069194782,0.7954409540225841,-1.3214901326203965,-0.943115234375,-0.178955078125,-0.05810546875,1021,1023,1023,1023,1023,N
-9.742006908065944,36.93036664787331,-2.284963592291755,1.417161436245406,-0.6151399491094148,1.967309867119028,-0.956787109375,-0.04150390625,-0.0146484375,1009,1023,1023,1021,322,I
-21.791208870908235,57.80912745114915,-9.55893685241199,-0.7584110828385636,0.003180661577608,0.2268518518518523,-0.93115234375,-0.223876953125,-0.09130859375,1003,1021,1023,1022,1023,N
-78.29555558239628,64.80012833213321,-47.09492982514755,-1.0,-0.1249516304921377,-0.9375945404017308,0.500732421875,-0.3330078125,0.662841796875,739,622,1023,1023,908,P
-83.71277131513317,77.55350993321038,-38.54780164623214,-2.6913545180188176,8.29707083259365,0.2758388070300006,-0.658203125,-0.49658203125,0.34912109375,812,830,1021,1023,1023,Z
-4.039014711862352,10.125406660863232,-0.0773080034036883,0.068772645724136,-1.3479790340169555,0.1581594962535627,-0.947265625,-0.1572265625,-0.110595703125,1010,999,1022,1023,368,B
-6.121520050655339,13.922228734215008,-0.1387265015426927,-6.760178117048347,1.8208580718122704,-5.797285835453774,-0.875244140625,-0.19091796875,0.18994140625,1022,1022,1021,1022,1022,E
-28.06408541001887,37.85377612876688,1.8873954205530348,0.4244304962958019,1.2928413582214038,1.5549857906258882,-0.8434093428347041,-0.2162896583856903,0.2698296241647468,1022,715,465,1022,1021,V
-25.24488964709206,38.75109567399522,-10.65779329379761,0.8016674288528516,0.6757659971154186,-0.0128399057234318,-0.156982421875,-0.96923828125,-0.259033203125,447,764,808,1023,1023,H
-1.1280660679900714,5.44557394368813,0.1308675595430409,0.8539016115351993,1.236005089058524,-2.740811422109132,-0.958251953125,-0.07666015625,-0.223876953125,1023,996,1023,887,408,B
-86.35253323488485,78.57841644528968,-54.51619638139299,-0.2583107608963312,-0.0499525099377352,0.2284799662292893,-0.934814453125,-0.18212890625,-0.025146484375,765,699,1023,1023,979,V
-4.348517127258675,33.11849368528734,1.424892358137129,0.6685043822448398,-2.4642705682782022,-0.2672462538874753,-0.895263671875,-0.220703125,0.087890625,1009,1021,958,1001,483,F
-0.8203691035028191,0.0032033302333667,0.1262959082867501,0.0268589199886912,-0.1026646875883516,0.0796225614927903,-0.0498046875,-0.94921875,0.1025390625,557,634,1023,909,1021,G
-107.07610527993288,73.67193361731593,-68.16710145681286,-0.119745312554965,-1.025855700566363,0.3071375804692733,-0.8369140625,-0.349365234375,0.150390625,696,741,1023,1023,1023,L
-21.97808381479664,38.98943670377157,-8.446394537383764,1.4657895662574318,-3.400569880747177,-0.844900974425722,-0.156982421875,-0.968017578125,-0.27783203125,438,763,801,1022,1021,H
-12.117758091646255,33.86024103568476,-2.556065101454083,-1.295915854645232,-0.3686284166461464,-0.2214795792732256,-0.957763671875,-0.14111328125,-0.069580078125,736,1023,1022,1022,478,F
-1.86743049132576,0.1188771884320272,0.179069668360559,-0.8433700876448966,-3.3240387333898784,1.850614927905004,-0.06689453125,-0.96337890625,0.07958984375,550,620,1023,923,1021,G
-1.6333389174790125,16.54906304808298,-1.856096541705884,1.5388456873796106,-0.5895698080901762,0.3120139830206179,-0.80810546875,-0.166748046875,0.3427734375,961,837,893,987,492,C
-7.218364424041821,16.65428896906491,-0.3208080093042538,1.14058524173028,1.790323720667232,-0.0720949957591177,-0.84716796875,-0.22265625,0.23779296875,1021,1023,483,783,445,F
-101.911532495824,74.77493905601838,-63.521265767457685,-0.2647834804938963,-1.6899778379709436,0.5972139163471357,-0.8564453125,-0.379150390625,-0.410400390625,759,816,484,1021,1023,K
-1.127436466900216,1.248970604550852,-0.0054092868147254,-0.5548357728132223,-0.301351635268577,0.1072203935849851,-0.6220703125,-0.5029296875,0.392333984375,1019,542,1023,1004,1023,Z
-56.52322750926815,65.37828036917035,-17.831574714007413,1.5285116262707998,1.0033067154465825,-0.5429345340697234,-0.535400390625,-0.468017578125,0.52001953125,982,454,1023,1023,1021,Z
-82.1442235548752,66.40013951578591,-50.62134921631068,-0.0406158512507404,1.1486946301195062,0.532489918737342,-0.8398939039674665,-0.5012581279786794,-0.1128955641479784,769,1022,1022,1021,822,O
-71.02329652191548,71.53524178052099,-21.29341390547962,0.8567559010799602,0.6903296162099413,1.1440883666936357,-0.912353515625,-0.2392578125,0.03076171875,974,1023,878,771,1023,M
-1.702547264939727,3.5888680720127857,-0.0599201085819694,1.6861434551658632,-0.9683751363140678,1.115840574102086,-0.699951171875,-0.380615234375,0.4169921875,1021,1022,1023,916,1022,O
-0.3041119008773669,3.658231541608023,0.5575986168596617,0.0074935219553182,-0.2034456194411372,0.3901533720848809,-0.861083984375,-0.34326171875,0.124267578125,1022,1022,483,270,523,F
-82.03997974524748,79.16198371865524,-45.78402663883472,1.0176592675977068,3.371090864319133,1.0017940690188916,0.420654296875,-0.42529296875,0.6279296875,595,859,619,1022,1022,P
-2.8245406110608378,6.339692735258411,0.8157500327023517,-0.4409224019684022,0.769739008904806,0.5843244640586309,-0.8671075595655621,-0.2981251650394944,0.1073202456757784,1021,1023,1022,665,1021,M
-63.74680513392403,73.35125370976766,-17.220606005361333,1.6124810919196548,0.2323143490343687,1.2662257712737883,-0.760986328125,-0.351318359375,0.324462890625,882,1022,1022,712,970,O
-8.192942804605387,22.643579427493844,-0.9047586246106364,0.2286542267458299,-0.8414970313825276,0.1174017528979365,-0.9453125,-0.146728515625,-0.049072265625,689,708,995,1023,742,D
1.695702175314513,6.133763226920806,-1.204584255761909,-8.957307361587482,-14.390982367352192,-9.694645165047048,-0.761437419808733,-0.4469363029614752,0.2220096077671779,792,1021,1022,849,612,J
-20.064737602413462,51.49605500448615,-7.325892371538867,1.7454057110545662,0.6825699745547074,3.76120299689002,-0.951904296875,-0.114990234375,-0.043701171875,1021,1023,1023,1023,946,M
-15.493342459585213,48.8479043329268,-5.154431594132194,0.4553293751767037,2.63676844783715,-0.1090260107435674,0.52587890625,0.0224609375,0.71240234375,1023,669,1023,1021,1022,Q
-32.226484810641985,40.4794225972816,-13.83233941570785,-0.400621996041843,0.4302374893977948,-0.3147441334464234,-0.811767578125,-0.529052734375,-0.162353515625,919,1021,1007,1021,1022,J
-6.313011213052287,14.506851704879518,-0.2724704862025804,1.522264631043257,1.3094076901328808,-0.2934690415606442,-0.899169921875,-0.22802734375,0.17724609375,1023,1023,1022,1023,1023,E
-1.2180289066948096,12.8682405804135,-1.5866311917613396,-1.552412825703516,0.4167043249345993,0.5487905138877148,-0.866030686033199,-0.0915397124428599,0.2682332503628183,1002,744,904,920,526,C
-7.967430171848638,20.441570473044404,-0.9679929601704392,-0.1596721426812541,1.3034790867836914,-0.7963907552678797,-0.935546875,-0.1865234375,-0.028564453125,679,658,1022,1022,917,D
-35.89425882776246,57.63215586421919,-24.104341950062164,-1.7990140039773392,-2.5930583708357173,-1.431188392664753,-0.9279686481613896,-0.1303148942292499,0.0233896653124039,986,1022,1023,1021,1022,M
-55.12020300079773,66.40901702763469,-32.395502987888044,-0.1134082555838281,-1.0898360192253322,0.0991659598529832,-0.951904296875,-0.08642578125,-0.070556640625,1023,1021,1021,1023,1023,S
-41.508781778293454,46.95815929077907,-19.8487707206569,2.581000848176421,-2.2483036471586084,1.252049759683347,-0.611083984375,-0.56787109375,-0.687744140625,515,614,655,1021,1022,K
-68.38176763868647,73.10147396387933,-37.4547276066588,0.3420978230138534,-0.4685821317500709,0.1806615776081421,-0.9365234375,-0.14013671875,-0.020263671875,869,1023,1022,1021,1023,T
-0.1156522013429766,0.4163010007256327,-0.0118611939345334,-0.6053916701616511,0.6314967565724644,-0.3333705560924144,-0.957675007904908,-0.1314512555344397,-0.1823117358756271,834,1023,1023,1021,1023,A
-46.820525120154,61.060577519284834,-32.82750195071882,0.5082697201017814,0.8937305626236923,-2.38238620299689,-0.969970703125,-0.017822265625,-0.229248046875,1023,577,1021,1023,1019,R
-29.99798519262155,41.3751907742366,0.6944882588284041,1.8886768447837152,2.393377155781736,2.1569126378286687,-0.815673828125,-0.42822265625,0.03271484375,1023,1017,1021,1023,1023,X
-48.91434354494674,78.27166183131317,-36.98255831713753,0.8751767034209784,0.8505089058524172,-0.3227664687588347,-0.881103515625,-0.315185546875,0.05126953125,1023,902,1023,1023,1022,Z
-81.12527478389725,66.63060669578154,-49.70141862766639,0.0377458050444999,0.5970028494037359,0.7176979632039969,-0.819091796875,-0.495849609375,-0.10498046875,768,1023,1023,1021,822,O
-34.33275128774296,54.59626362709756,-23.676864946331182,2.6920412779191403,3.624611252473848,-1.0260814249363877,-0.884521484375,-0.281005859375,0.1240234375,1021,953,1023,1011,879,L
-3.3951967300606087,25.769398699855326,-2.6716809093381744,-4.7228583545377445,1.2557251908396947,2.389949109414757,-0.940673828125,-0.209716796875,-0.1142578125,1023,1022,1022,1023,1021,E
-76.32074009938373,67.37613867224015,-45.17414764258409,0.7095015302353397,1.207689872304499,0.5955605586238443,-0.8232421875,-0.500732421875,-0.114990234375,773,1022,1023,1021,834,O
-14.809900067087176,62.70835904721598,-2.7823619412164144,-0.5904721515408536,0.720737913486005,0.3108213175007073,-0.94091796875,-0.2099609375,-0.193359375,1023,711,1023,1023,1022,V
-98.50313073369765,82.45454381217114,-61.21690509958506,1.3230027790480885,-1.6899778379709436,1.7193513209272884,-0.922607421875,0.103759765625,0.0146484375,1022,1022,1023,1021,1022,S
-56.054428033946856,65.788400856534,1.7950818022862525,2.3224047560417924,-2.576845956309143,0.0066837865409639,-0.85595703125,-0.3115234375,0.170654296875,896,555,356,283,639,B
-64.87302547470503,76.45282118504863,-34.00409073656082,-0.197488303373553,-0.2253139620783056,-0.2406866711225244,-0.90625,-0.133056640625,0.118896484375,704,877,1023,1023,1022,U
-87.27276256349413,80.38978834659267,-55.40732904693578,-0.1884476026313009,-0.5831076089633099,0.4903436873395022,-0.818359375,-0.38427734375,0.185302734375,880,742,1023,1023,1015,Z
-108.03454459510247,77.86313011992877,-75.38388028044359,0.3756639814261087,-0.9589826573328174,-0.3813627888978791,-0.946533203125,-0.164794921875,-0.114990234375,913,524,1023,1023,1023,W
-3.458794802567461,25.79039253733958,-2.543557507019327,-2.605324206677859,-3.812173475643271,7.044279594625386,-0.9340449510039608,-0.2172779945442277,-0.1050773860765734,1022,1021,1022,1022,1023,E
-88.13544489046049,80.62963688798904,-56.26388993907462,-0.974995163839329,3.486913801110139,1.6411202846209891,-0.8213026388713521,-0.3915768331239271,0.1910799213777895,898,767,1023,1022,1022,Z
-12.590098870861286,32.74669329933058,-1.67323631238766,-1.3156629912355102,-1.660941475826972,0.8528060503251348,-0.324951171875,-0.921875,0.03662109375,768,802,1023,1021,997,G
-18.56638349780539,19.873294250787083,6.392944109647593,2.736005089058524,-1.4921190274243712,3.782866836301951,-0.901123046875,-0.342041015625,0.164306640625,1021,550,1022,1022,1020,L
0.2193383392896587,1.389168281942833,-0.2308292631585803,1.078395171311911,-2.7220308894017387,2.3800106515178414,-0.9658203125,-0.111083984375,-0.18505859375,895,1022,1021,1021,1023,A
-8.87822092826057,40.66018720508025,-3.877723250657733,-1.5826972010178115,3.5351639807746675,-0.5928046366977667,-0.347412109375,-0.903076171875,-0.02099609375,857,860,1023,1022,1021,G
-60.88618314049253,58.99256302262626,-1.3680786844780608,3.985964048263975,-0.2681957294121784,1.3451296302810705,-0.899169921875,-0.2197265625,0.091552734375,994,1023,1022,1022,1021,N
-37.20368799192652,46.887616735320655,-6.382324638885945,-5.701058852499385,-1.9704858057480563,-0.7083054842227463,-0.817626953125,-0.406005859375,0.183349609375,1023,1023,1022,878,1022,C
-65.11540172343497,62.61843838246772,-34.7693672189166,-0.3976838709411486,-2.6406649292883446,0.0640082158941401,-0.8513995401148584,-0.2166751038902123,0.2499413029761661,574,649,1022,1021,905,R
-95.97644125522756,74.93389513131383,-60.92857926530325,-6.165546839272523,2.332922925387835,2.2689696415379754,-0.87548828125,-0.154541015625,0.228515625,1022,1023,1021,927,1023,M
-9.304311480348094,38.05042430287203,-2.275614477524367,3.9591461690698337,0.2474554707379134,0.967309867119028,-0.66845703125,-0.686279296875,0.001953125,1023,1015,1023,1023,384,J
-84.46499985505996,79.52754493631384,-47.5812684486522,-3.1579132514862627,-0.2701305097266687,6.948358954515075,-0.9609375,-0.1455078125,-0.112548828125,896,932,409,967,1023,R
0.3555033412214472,5.3281178987999525,-1.24896107472262,3.926575537014025,0.9206816971418424,-2.8020592934493163,-0.714599609375,-0.552734375,0.176513671875,815,1023,1021,863,595,J
-74.7639455578547,79.1214519856333,-37.91166156030992,0.6665142294297678,6.042846589509972,4.68881696978225,0.541259765625,-0.276123046875,0.6728515625,774,949,924,944,1023,Q
-35.755120290213824,57.69217756054538,-24.038320538657928,0.3793005503284205,-1.45794425705663,-2.430072785371916,-0.9345703125,-0.127685546875,0.046142578125,970,1022,1023,1023,1022,M
-47.84672338952655,68.86624519022867,-4.928065445165721,2.6048475041333954,-5.485242902874028,-0.6345375875048376,0.649169921875,0.003173828125,0.620849609375,666,781,1022,981,1023,Q
-4.315493375617109,8.360811098886638,-0.0339853135796035,-0.8975826972010178,-0.7287602487984169,-0.8354537743850718,-0.841552734375,-0.29443359375,0.245361328125,1023,923,1023,997,1022,D
-47.788220498435926,69.89028152596987,-4.188615732537574,3.030508407355884,-4.707233915302975,-2.9334411132388167,-0.9278996689839898,-0.1968164241715535,-0.031687289782156,1022,1023,1022,978,1022,S
-60.40284205708157,55.44200386981176,-0.8543443946151325,13.451612903225806,12.823407324022936,1.1771906989833605,-0.83544921875,-0.356689453125,0.22216796875,472,551,1023,1022,1023,L
-0.3155186996767777,1.9900360291520136,0.0749240572042351,0.2947413061916877,0.752085100367543,0.9026010743567991,-0.90576171875,-0.209228515625,0.053466796875,933,1021,1021,969,1023,T
-61.74229753340233,66.30093398310693,-31.29969691222571,-0.3206810426707007,0.3955394519295038,-0.5548598163717593,-0.937744140625,-0.094970703125,-0.06494140625,1008,1023,1023,1023,1023,S
-0.8349812066400074,2.707572247382822,-0.007798108219357,-0.7065114152038552,-0.2857846413620853,-0.3545221092623218,-0.924072265625,-0.278564453125,-0.109130859375,608,1022,1022,1023,1022,A
-54.66204927078704,55.466053770849015,-29.26316559584079,-3.059124964659316,-3.05689850155499,0.7401399491094146,-0.9296875,-0.265625,-0.279052734375,521,652,826,1021,1021,K
-3.1399866158755634,6.0932549427889455,0.0650534495274164,7.659669211195928,-2.461584676279333,-0.9957591178965222,-0.79296875,-0.556396484375,0.023681640625,1021,1021,1022,932,1023,C
-53.660085910125424,70.5477684990257,-29.65927669059352,-16.677947022197202,0.4528441270622987,-9.026277834453158,-0.907958984375,-0.245849609375,0.004638671875,1021,934,1023,1023,1021,U
-5.585153605454154,17.151411753061165,0.1296434120180195,1.044741306191688,-0.1380407124681933,-2.488903025162567,-0.934814453125,-0.20068359375,-0.031982421875,662,1003,1022,1023,1023,D
-60.49501891462328,64.61273565873641,-30.18237273529009,-0.5420550884722275,0.441340978647061,-0.0739437858374081,-0.964111328125,-0.0927734375,-0.0771484375,1017,1023,1022,1021,1021,S
-1.1036287818877533,1.1903442655180665,-0.0008317746194407,-1.1024741602469923,0.1428072537659312,0.9572727483506648,-0.6313973023345938,-0.4887847166788749,0.3936706735533828,1022,542,1022,1015,1022,Z
-85.80674203027715,79.84845586067536,-48.22063769433327,2.0943660385998077,-0.0012422991451686,-0.6622876966822133,-0.9546705933361012,-0.0080415056914287,0.0160034631604444,824,884,383,965,1022,R
-23.74747991797852,47.61603310712215,-11.840495775794322,0.3120582414475539,0.1050678541136557,0.2926562058241447,-0.8798828125,-0.401123046875,-0.114501953125,892,1022,1023,1023,697,J
-24.33765053148252,28.149298993834947,4.538481348821695,2.293256997455471,1.3781099802092167,2.385920271416455,-0.14892578125,-0.827392578125,0.39208984375,1023,680,1018,800,1023,P
-9.719403083605387,35.759796078704206,-2.4050985188711733,1.2568560927339556,-0.5922391857506362,1.1810503251342952,-0.945068359375,-0.028076171875,-0.0009765625,1015,1023,1022,1022,326,I
-8.209515508488723,22.669673489674885,-0.8959877767865039,-1.3958793381298618,-1.0388702682365836,0.9220772569952418,-0.92613229014984,-0.152798202286443,-0.0743221621366028,689,708,995,1023,741,D
-54.1115299293166,55.50720211253845,-29.329543418735884,-4.5171402318348886,-3.5454481198756005,-2.8094783715012723,-0.935546875,-0.2333984375,-0.2939453125,518,662,830,1023,1022,K
-3.3395834052736437,12.018947047664025,0.7498813663042786,0.4041838977740392,-4.076363250282332,1.1550408844943985,-0.9010585873950904,-0.1803873797448816,0.1201998670350627,1021,1022,1022,1023,746,C
-23.540654345189296,46.46291311895125,-11.159998488892915,1.197554424653661,-0.3758481764206954,-1.615740740740741,-0.864501953125,-0.405517578125,-0.145263671875,893,1023,1022,1021,708,J
0.7143044180349368,3.581198829846094,0.5148424582474844,-0.8138824782531506,-1.9266465471329668,0.6941239126575541,-0.8896484375,-0.196044921875,0.169189453125,913,1022,1023,803,501,I
-20.94990562843857,25.80985254264313,5.670746134625702,-2.115304115319047,1.5091770724382905,-0.8326343264384228,-0.90565001154065,-0.1433110856945772,0.1092355680456538,1023,1019,1022,1020,1023,N
-1.4778155387016725,4.302776673413146,1.0137334777011406,3.5436810856658183,1.2335312411648285,3.422250494769578,-0.9150390625,-0.2734375,-0.130859375,569,1021,1022,760,645,Y
-84.68085267497544,83.5307986163428,-52.46547319762254,1.6207127027122106,1.4626939177542475,-0.0898089844162228,-0.91015625,-0.21630859375,-0.0283203125,657,1023,1023,942,557,Y
-94.10640495874938,77.85084630142076,-56.23669974427517,-1.0434094346923697,0.6077320856931787,-1.3264502057902687,-0.803955078125,-0.52392578125,-0.1220703125,883,1019,928,1022,381,J
-35.67443162102065,42.9097602898403,-15.876066743250767,-0.5465436810856659,-0.3894543398360192,-0.0297568560927345,-0.8330078125,-0.452392578125,-0.2607421875,918,1021,1014,1023,1021,J
-61.41198039155866,67.25329709431927,-6.98553979890674,2.5132444506982807,-1.7142505364618144,-1.3902627783445325,0.03271484375,-1.009765625,-0.082275390625,867,770,376,828,1021,H
-0.2849244459346954,1.7633102514051795,0.0361383763964761,-0.5144189991518238,-0.2631820752049761,0.3606163415323716,-0.921630859375,-0.22265625,0.0537109375,915,1023,1023,963,1023,T
-13.074982364553858,36.94264729241429,-3.133654475647077,0.9126534632567632,0.2974988567207233,1.0313434410947335,-0.93701171875,-0.158935546875,-0.046142578125,522,1022,1023,1022,439,F
-57.79589397677239,59.03159919343134,5.1857563700435865,2.207900939247899,3.797199845217575,1.5028669926478342,-0.847900390625,-0.321533203125,0.159912109375,511,1021,1023,1023,1023,A
-54.372072348375134,65.4308999122525,-31.703170511820566,0.6804848741871642,1.0475685609273395,0.770921685043823,-0.951171875,-0.094482421875,-0.06005859375,1022,1022,1023,1022,1021,S
-42.10829726738332,47.3773029337225,-20.337814904618703,0.3672603901611541,-0.9963952502120434,0.1146451795306753,-0.617431640625,-0.581787109375,-0.666259765625,505,610,648,1023,1023,K
-95.13776282161147,74.53291881101681,-60.28902781858631,-17.005241495761073,2.500861856685545,6.421641397263167,-0.867431640625,-0.1494140625,0.2412109375,1023,1022,1023,921,1023,M
-51.89651556288823,65.72369164370478,4.534519989625916,2.853136386131422,0.2946231537434496,-0.353522314238469,-0.7764644883274969,-0.3219241835475031,0.3266450989348207,1010,1022,1022,704,887,C
-91.85331293826997,82.12125243759849,-59.88660605740162,0.3001020156893097,-0.6212755478946076,0.5590459774158381,-0.935791015625,-0.217041015625,-0.0009765625,641,1022,1022,919,518,Y
-130.7937081004444,75.04440583388623,-103.54476734010456,13.475862312694373,8.603901611535196,5.4181509754028845,-0.728515625,-0.639892578125,-0.05908203125,738,715,1023,1023,1021,Z
-9.861695190890892,28.450798951920373,-1.413237175461458,-0.9869490273331692,-0.9369261617476344,-1.5679459668624898,-0.924560546875,-0.230712890625,-0.04150390625,1023,1021,1022,1021,901,E
-2.80653777262052,21.65727980125697,-2.397885412183824,1.9794317217981328,0.4755089058524177,-1.0995547073791347,-0.869873046875,-0.2607421875,0.154296875,869,756,1023,1023,823,D
-70.30557169641564,75.03128118981034,-39.34290720520962,-0.8103856152431722,-0.076009507054297,-0.5213012849908174,-0.9375193495659055,-0.1403957667018415,-0.0113034247745585,848,1022,1022,1022,1023,T
-68.71973286728218,59.518173608600975,-37.86406311597619,-0.1643695221939496,-0.6676915465083412,-0.7769649420412779,0.436279296875,-0.267333984375,0.728271484375,659,537,833,778,728,P
-71.99249195580018,82.37306359749962,-33.83812296040674,1.1016287332465615,0.768037429204629,-2.173778450065078,-0.93896484375,-0.1201171875,-0.01904296875,651,1023,460,635,596,F
-68.90580595704216,69.28213345768924,-38.42162300987882,-23.899321067998727,6.032996798818024,-5.117880887888271,-0.91943359375,-0.2421875,0.05859375,1021,927,1021,1022,1021,U
-69.6564269616861,70.33248842364644,-19.87642806214085,-0.2862232228979355,-1.865872529099368,0.3655061526238138,-0.9277919389171296,-0.225592932076237,0.027061734467327,992,1022,900,792,1022,M
-27.02383389483936,35.41631847451288,2.286423268715765,-0.3021628498727735,-0.4768518518518519,-0.1102629346904153,-0.913330078125,-0.181396484375,0.037353515625,1021,829,390,1023,1023,U
-44.432755508437744,67.62858480417766,-2.0605630305078875,1.3987406339043875,-17.46997572730151,-6.054384915749113,-0.866455078125,-0.298828125,0.188720703125,1023,1023,1023,980,1018,S
-3.629252364605574,11.43467602101671,-0.8463225908704375,0.8405389242621453,1.4232243993386569,-0.5591515108875362,-0.786865234375,-0.364013671875,0.26708984375,1023,1023,1023,1016,1023,E
-47.21080629189048,61.3650719745594,-33.18398791964678,-1.62913486005089,0.2830435397229289,-0.1610121571953631,-0.967041015625,-0.02880859375,-0.238525390625,1021,575,1022,1022,1020,R
-73.07774273280017,85.21723351669216,-41.17753498114351,-0.6922643965244306,-4.674710662398424,-1.7539311218208034,-0.82177734375,-0.197509765625,0.313720703125,1022,1022,1023,1021,1019,X
-73.46167089487908,62.48899138302644,-41.78681738082632,0.8192915186266577,0.4689203925845144,1.058008231610793,0.783447265625,-0.234619140625,0.424560546875,772,617,1022,1023,993,Q
-8.265152532309946,24.23801736713645,-0.8480188297298886,-2.9857930449533505,3.052798982188295,0.5416313259824712,-0.93212890625,-0.235595703125,-0.24853515625,718,1023,1023,1023,711,F
-35.55021322303916,48.266469257438885,-21.19507863268252,-2.980456601639808,1.207061068702291,-3.277212326830647,-0.97314453125,-0.1396484375,-0.35205078125,770,848,862,1022,943,K
-62.65159193608438,65.37116677126726,-32.76308683876637,-0.1884365281311845,-0.995723777212327,-0.8448190556969181,-0.943603515625,-0.1318359375,0.01220703125,1023,1023,997,1021,1021,N
-54.52398563337418,69.65538933909541,0.4688293012872144,0.6659162064234717,7.522390684912231,-2.1536215569704864,-0.106689453125,-1.00048828125,-0.191650390625,820,868,1021,1023,1023,G
-39.16949222746422,49.23622006692375,-7.501920277220844,-3.243043585323812,-6.046821683610652,-0.3724276216273265,-0.90234375,-0.3056640625,0.099365234375,1023,558,1021,1023,1022,D
-16.914461404256,50.22643822476702,-6.629024995334615,0.2186881538026578,-1.8517811704834608,1.1199816228442188,0.48876953125,0.02197265625,0.732421875,1023,645,1023,1023,1018,Q
-46.79892726950838,69.2279420754558,-24.701761008191564,-0.075306231137937,0.8067104562400144,0.5162435647079711,-0.921630859375,-0.18310546875,-0.003662109375,930,1023,1023,1022,981,T
-54.01058152517239,77.86660497591734,-41.95737351390785,-0.1706248232965788,1.4764631043256995,1.5627297144472725,-0.881591796875,-0.316650390625,0.04052734375,1022,901,1023,1023,1021,Z
-8.344189212090217,23.76772105847614,-0.8551061420149703,-1.504170200735086,-1.5056191687871077,2.796791065875036,-0.9384765625,-0.151611328125,-0.031494140625,683,699,992,1022,740,D
-0.2510132803697533,0.5334980712033701,0.0062915439530228,-1.0761591744416172,1.060927339553294,-0.0971868815380261,-0.81640625,-0.49169921875,0.039794921875,640,521,329,839,1021,K
-60.61168016899371,58.02779610284774,-1.2303079908264083,-2.941576823865739,1.576761620356177,-0.016774421274515,-0.9066356974760932,-0.2418986302225072,0.092122092760895,1005,1023,1022,1023,1022,N
-58.86047770897918,68.59139873339532,-3.939148803907236,8.137189708746714,0.5744632090048967,-6.723060078313452,-0.10476682675847,-0.9736659466158912,-0.2404405225648186,738,604,1023,1022,1020,G
-51.78318580204728,65.58681536623968,4.029461866177423,2.994160481232632,2.926970837583987,1.3959967636402006,-0.84814453125,-0.396240234375,0.055908203125,813,620,1021,1022,1023,D
-88.10064997342299,70.76891925132335,-50.62634914391151,-0.5294966053399947,4.319555352305905,1.7848172512048406,-0.916748046875,-0.1806640625,0.075439453125,776,402,778,1022,1022,V
-103.82968427276008,79.55732742570869,-65.19932039745957,0.9852982753746112,-2.229608425219112,1.2472434266327403,-0.834716796875,-0.24853515625,0.25048828125,1023,1016,1023,1023,1021,X
-35.64122325723514,42.88908268726863,-15.858665680476632,-0.0885284139100933,-0.8474696070115917,0.7641362736782578,-0.838623046875,-0.43798828125,-0.2734375,917,1022,1015,1022,1021,J
-93.51436646778409,76.59758897289929,-47.83353982789651,-2.439446121072253,6.617681519616552,-0.9531688265577856,-0.676025390625,-0.493408203125,0.350341796875,799,827,1022,1022,1021,Z
-48.416722818044576,52.578865221862685,-14.278372792445728,1.474513666584585,-3.7338445843740105,1.1084884089070246,-0.93017578125,-0.092041015625,0.154296875,1013,1023,803,971,594,I
-72.00413894190764,72.01725236631727,-22.31877716328107,-0.1279769233475207,-1.4394413761564708,0.2356914201287501,-0.915771484375,-0.254150390625,0.0087890625,967,1023,873,770,1023,M
-35.828044965561666,57.67194474258647,-24.068918106321384,6.776247115213916,-1.763287768507012,-0.949156754837565,-0.941162109375,-0.126220703125,0.027099609375,986,1022,1022,1022,1023,M
-18.53895034732089,19.892060426745605,6.414749677485124,3.0184478371501275,-2.217309867119028,1.8057675996607296,-0.872314453125,-0.3046875,0.1796875,1023,550,1023,1021,1023,L
-77.67725829044848,64.54477278305643,-46.43388451523328,-0.1755725190839693,1.0506208885918316,-0.2429380518521126,0.513427734375,-0.3359375,0.64404296875,743,623,1023,1023,906,P
-0.2858615725239516,1.0967304577265666,0.0060178978937231,-1.2453350296861747,0.3123409669211196,-0.3133305060785976,-0.9619140625,-0.1240234375,-0.184814453125,837,1023,1022,1023,1021,A
-1.995756388433858,3.873362941167093,-0.3204753157009928,-1.2487277353689563,0.721621430590896,-0.4614079728583542,-0.781005859375,-0.29345703125,0.331298828125,1023,763,489,853,830,B
-42.71262602797188,52.99266728581815,-9.681951119088971,-0.2125092341787736,-2.153691912618285,0.7726105463116048,-0.23828125,-0.942138671875,-0.300537109375,1012,953,1023,1022,1023,G
-58.15938715892022,80.53228705983449,-20.081034861092245,2.200865374467936,-0.2548633341541496,-0.7997326485383605,-0.94677734375,-0.12158203125,-0.0107421875,678,1023,478,701,605,F
0.1870591806192217,0.746309028706614,0.1204281754576419,-2.7989587364125663,6.956238787068632,2.5877862595419843,-0.901611328125,-0.220703125,-0.08642578125,714,1022,1022,1022,1023,A
-8.51769330374944,24.157864775388347,-0.9994026908912832,-1.1072236358495895,0.898960983884648,-0.0200028272547352,-0.943359375,-0.159912109375,-0.05810546875,681,700,994,1022,741,D
-10.088806721526552,35.494718519089325,-2.186178077317696,70.91334464235227,2.819974554707379,-18.95635425501837,-0.91845703125,-0.042724609375,-0.07666015625,1023,1022,1023,1023,614,I
-57.61139484346187,66.64496797476843,-3.133114159587893,2.0781299468814867,3.6292609139198646,0.4265311147852386,-0.805419921875,-0.337646484375,0.255859375,1023,1023,1023,963,1023,E
-8.294977510388309,23.495278270137486,-0.8590325651052158,2.763005371783998,1.5936174724342662,1.9036612948826688,-0.940673828125,-0.14501953125,-0.039306640625,681,702,992,1022,742,D
-6.597537995139917,40.14864584725846,-2.286818001755264,3.3952855527283017,-1.7668221656771277,-1.0051950805767595,-0.304931640625,-0.92626953125,-0.130859375,905,962,1023,1023,1021,G
-36.38310269607529,43.51376118034904,-16.224145086777714,-0.1383945917764123,-1.7450608086053334,0.4110411826151448,-0.8473624319284728,-0.4539557109615568,-0.2592720645725752,912,1022,1016,1022,1022,J
-54.78359146094451,71.54267814266376,-9.496687255442218,9.307137580469274,-15.393639849438912,-1.6879727020086546,0.439697265625,-0.389892578125,0.699462890625,796,778,719,468,659,P
-1.598394624565498,4.661483234797258,-0.0405522006862549,-2.823583213142435,4.736201498575298,2.250008794455975,-0.9208984375,-0.273681640625,0.044189453125,1021,495,492,459,577,B
-45.76435177602004,67.38688110998478,-2.6589352939092903,6.742252084286067,-0.7676856509656312,2.4952334048615743,-0.8134765625,-0.31689453125,0.19677734375,1021,1022,1021,979,1023,S
-16.469679125613816,40.11684418290147,-6.91028123408823,-0.710486509304534,4.019312625320998,-1.1865480001407114,-0.298095703125,-0.909423828125,0.01416015625,740,887,989,1021,1021,H
-0.5428268206483627,4.189115206447803,0.2981070494319588,-1.733598339606712,0.256411158405741,0.3287367643437576,-0.91943359375,-0.25830078125,-0.05322265625,1022,1023,1023,1019,1021,S
-23.46827519720064,44.69155513976103,-10.938656628881969,-0.3047727759149599,-1.4539844474566597,-3.658771491760005,-0.94775390625,-0.106689453125,-0.054931640625,828,1021,1021,1022,517,I
-68.78391982203591,73.78018824308398,-37.88034120816101,-0.2227876731693527,0.3405781735934405,0.2340966921119589,-0.92236328125,-0.13916015625,-0.00537109375,855,1018,1022,1023,1023,T
-80.86723747058181,78.46498953207184,-49.17919128713337,-0.6323565624230488,-0.0270517465789565,-0.916558201709642,-0.9287109375,-0.1884765625,-0.029052734375,777,710,1023,1023,986,V
-32.25839930776733,40.47974884158919,-13.854864676556351,0.0573932711337294,-1.7682357930449537,-1.337644896805202,-0.806640625,-0.5380859375,-0.17919921875,925,1023,1007,1023,1023,J
-0.6052776762334089,0.1816376268393102,-0.1488540514751501,0.2254048655204396,-2.847256902332884,-1.199579082542627,-0.558837890625,-0.469970703125,0.495361328125,841,389,574,457,248,B
-85.66245643100726,72.7534133332458,-40.46818135440769,2.137510602205261,-1.8338634435962669,-3.4412637828668364,-0.294921875,-0.385986328125,0.715087890625,896,532,1021,1021,994,Z
-25.47164473474149,32.050240219265184,2.963764428355697,-0.9891857506361322,0.454445858071812,0.2485156912637831,-0.90380859375,-0.26953125,0.04638671875,1023,1023,1023,1022,1023,T
-50.64678842182388,53.28415859238631,-27.78471471069655,-0.315650613853027,1.581419073416119,0.526647201604109,-0.886474609375,-0.294677734375,0.07080078125,864,1023,1023,1023,1023,L
-50.8805176029404,65.4410919720801,4.86813919602119,3.765152847644846,0.9346044253702466,2.0753860766173,-0.840087890625,-0.419677734375,0.052734375,811,619,1023,1021,1023,D
-24.837007603848264,28.10591451645058,3.985759238778344,1.0337150127226464,3.5460489115069262,1.8744698897370653,-0.889404296875,-0.11279296875,0.16943359375,1021,850,395,1023,1021,R
-28.60098425827201,39.49086253161365,1.5926114872312982,3.808437350797001,1.869039074425304,1.0860729848283417,-0.8274551286483385,-0.2227449822365532,0.2835178134564913,1022,741,356,384,1023,W
-4.759412805609308,9.637957595605725,0.0156354875930683,0.97264631043257,4.920094713033644,0.4469889737065312,-0.724365234375,-0.34521484375,0.35693359375,1023,579,1017,984,1022,D
-104.2634596334512,77.71526289008771,-71.7198466771993,0.3451296302810706,-0.5544025046610617,0.4888662187357085,-0.9453125,-0.173095703125,-0.129150390625,919,530,1021,1021,1021,W
-102.95947283613418,76.68327963518853,-69.27192990999188,0.6182502550392234,-0.7565694586132903,0.8255883491047246,-0.9375,-0.234375,-0.2529296875,844,1019,1023,1023,816,Y
-55.888613946897074,68.02342924330316,-1.4349614669887247,-18.738663946248288,19.4155204559046,-0.5353009462834635,-0.757080078125,-0.309326171875,0.24169921875,1008,1023,515,273,655,F
-43.40273194857629,70.033223958682,-1.2160350302902534,-0.1279769233475207,1.6521616772786436,2.304393710205086,-0.890380859375,-0.2568359375,0.1474609375,919,1023,1023,902,1022,T
-57.03060722940574,66.49050018124721,-2.6688218194607405,0.1620994125303418,2.0033067154465822,2.586836458296689,-0.814697265625,-0.328369140625,0.2529296875,1015,1023,1023,960,1023,E
-7.354441878938315,17.021658231097422,-0.3968605181010912,0.1329516539440204,1.721621430590896,0.3019508057675999,-0.845703125,-0.2333984375,0.25830078125,1023,1023,481,764,448,F
-91.34500595700868,79.88485411953731,-52.89375190025761,-1.8849307322589768,-1.6723565168221648,0.8884648006785416,-0.81396484375,-0.265625,0.25146484375,1023,1023,1022,1023,1021,X
-6.728243096167569,15.46922992397149,-0.2673485808619871,-1.3326972010178115,-0.3012793327678825,0.0958439355385922,-0.848876953125,-0.224609375,0.249755859375,1016,1023,495,881,438,F
-0.7805287149069241,10.730870731061405,-1.6023340244560111,0.7611504741390216,-0.147007631886338,0.1976162097992798,-0.8664418778158284,-0.3402006636785234,0.0649893837034694,789,1022,1022,1022,1022,A
-25.773989460364827,38.73528463104678,-11.002576276498155,-0.8963028207127264,-0.9664343366451198,-0.4011061580089239,-0.1722899090249809,-0.9665488748694752,-0.2647093642916507,443,764,810,1023,1022,H
-49.83732416600762,52.20681359105066,-26.95549960858993,1.8828226685897207,2.58141907341612,1.5877159038941853,-0.8828125,-0.2919921875,0.0625,906,1022,1023,1021,1021,L
-17.70107804992395,11.74952645432094,5.216743605407719,-0.5648209972795062,43.641943032373575,48.51601730314401,-0.6145165113850963,-0.566856680390202,-0.4293833965648806,1021,1023,1021,1022,670,J
-20.02765991511075,61.98978720106066,-8.408623855738506,-0.0637545942889452,-0.4243002544529263,0.532195363302234,-0.943603515625,0.060791015625,-0.01123046875,1023,1023,1023,1023,1023,O
-0.2028731639706973,1.3150414207929946,0.0437027808538768,0.4932145886344358,0.6375812835736498,0.5514560361888602,-0.9111328125,-0.2138671875,0.045166015625,930,1022,1022,968,1022,T
-48.593021940890736,62.13653318070878,-33.70372804873563,1.180025445292621,-0.6787885213457734,0.4802092168504383,-0.958251953125,-0.023193359375,-0.218505859375,1023,579,1023,1023,1022,R
-42.47224308012546,47.50525313447986,-20.533296424124224,-3.2303443908959792,0.2405811376508248,-0.988918985471558,-0.556884765625,-0.599365234375,-0.712158203125,437,692,697,1021,1022,K
-6.018959257403106,15.346166181717775,-0.5583562482428486,-0.2063882928202064,0.3017553734126008,0.4048967530868543,-0.81298828125,-0.379638671875,0.1513671875,545,955,833,800,360,C
-20.46596382136652,69.14607764046269,-9.098258489169815,-0.6897087927622277,-4.0349872773536894,-0.1624611252473842,-0.9423828125,-0.187744140625,-0.185791015625,1022,644,1023,1021,1023,W
-13.7992248648042,18.7859511271582,-2.130518850347508,-3.2029262086513994,0.0956672321176136,-2.6980491942324,-0.746337890625,-0.218017578125,-0.764892578125,1023,1021,1023,1023,511,I
-64.69648120735802,58.993478469373024,-4.341831307761188,0.1046923579361241,0.9557492054886754,1.5090478434008117,0.2815615106272044,-0.517494812349442,0.6492579424614425,796,909,1023,1022,1021,Q
-92.34596351183728,78.93656680944785,-54.702799999799886,-5.150279663700004,1.0581137650824917,4.391107046118128,-0.81884765625,-0.497314453125,-0.115966796875,890,1021,930,1023,382,J
-3.14307103269942,2.809350523736696,-0.3016352984845326,-0.0763358778625954,-0.6909284573051657,-0.7721285283152849,-0.691162109375,-0.518310546875,0.28076171875,1021,831,1023,1023,1023,X
-0.4842411153356242,0.4011789669679408,-0.0662627331713198,-0.1755725190839694,-1.1184093733357,-0.4286170779336055,-0.737060546875,-0.497802734375,0.2216796875,1021,892,1023,1022,1022,X
-94.15480311633613,73.72089373523698,-48.524200621403374,0.4962892281594595,-1.8109626802374883,-1.5634011874469893,-0.33203125,-0.385498046875,0.67626953125,896,536,1023,1023,995,Z
-19.664969522678795,21.788207467207663,6.133934361870892,2.192355384794245,0.6599746475846032,3.083806010800026,-0.8746131937357265,-0.3154351118254371,0.1264752927277089,1023,495,1021,1021,1021,L
-40.979977756684725,51.75018290235389,-8.308875018271186,-2.1132725929573994,-2.543004889717522,0.001618179899391,-0.866455078125,-0.256591796875,0.20166015625,1023,1023,587,1023,902,F
0.3035368793928844,5.847340573788102,-1.3115903757653948,2.389455660983092,-0.4460298209317258,-0.2821573803238916,-0.895263671875,-0.067138671875,0.2080078125,1023,876,972,891,533,B
-15.023233714694136,52.69715508837774,-2.6226988441683616,2.577466779756856,-0.8517811704834606,1.348989256432005,-0.9541015625,0.067626953125,-0.010498046875,1023,1023,1022,1022,1021,S
-46.412586939325735,68.78948509622215,-24.35721521594933,0.7709923664122136,-2.6207105657416,1.1130769779553404,-0.962646484375,0.0244140625,-0.153564453125,1023,1022,1021,1022,1023,T
-54.17610594508369,65.15508380536907,-31.535950981153373,1.7797215154085384,0.2994769578739044,1.0609980209216856,-0.954345703125,-0.088134765625,-0.0595703125,1023,1023,1021,1021,1023,S
-35.45211781482255,42.88167763043281,-5.699703032222792,-2.0903718295986207,-1.6880430576564531,-0.548000140711296,-0.85546875,-0.239990234375,0.1904296875,518,1023,1021,1023,1023,A
-57.05403422641592,67.00771964454115,0.511219434847825,-5.731030358462024,2.812467020790094,2.548668519365392,-0.78369140625,-0.25732421875,0.33056640625,997,1009,944,589,806,C
-67.0591328844662,72.2132963129123,-36.124642068927365,0.2386815351602348,-0.5231997748619269,0.2871565764941772,-0.9404296875,-0.180419921875,-0.01220703125,799,1023,1020,1022,1023,T
-15.0359610056402,52.485046838535645,-2.6191511365957383,1.0889171614362456,-3.0197201017811706,1.6237984167373485,-0.953857421875,-0.06396484375,-0.109375,1022,1023,1021,1023,1023,S
-6.316937204821016,14.379574326558606,-0.2612236028889111,-1.5159033078880406,-0.7211266610121574,-0.0033927056827818,-0.87109375,-0.2470703125,0.16943359375,1021,1021,1022,1023,1022,E
-23.668744196081235,28.04162255117742,4.5753056260486895,2.453562340966921,3.4620794458580715,-1.3927056827820186,-0.11767578125,-0.862060546875,0.345703125,1023,707,1023,800,1022,P
-61.03608320643728,50.78110263077676,-1.6971085760890348,5.795124353607486,7.739437858374081,4.482534210433742,-0.626220703125,-0.575439453125,-0.615234375,1023,1023,760,949,547,J
-52.12252026138434,61.58655856562071,9.997182598831271,-2.7824437268889146,0.0096997206437703,-5.9673904021880695,-0.7010196654542794,-0.573296223134427,0.1658865981401762,1023,1021,1023,1023,1023,X
-15.061673235330169,58.0318429863565,-1.9004932474791247,0.5851003675431159,-0.9815521628498728,-0.1624611252473842,-0.958740234375,-0.001220703125,-0.100341796875,1021,1023,1023,1023,981,T
-27.520621840931305,73.34636043401508,-15.19838985895398,-1.6897087927622274,2.7131043256997454,-1.7578809725756284,-0.9501953125,-0.189697265625,-0.22802734375,1022,1022,1022,1023,458,Y
-53.786494942126126,63.02987029856661,8.428556100494403,0.5661167200196997,-1.8330812255953848,1.1619235234108414,-0.699951171875,-0.294189453125,0.412841796875,1022,702,325,309,1023,W
-16.46062397770979,20.327454271340446,-2.8348574143307856,0.0413486005089058,4.194903873338988,-0.2858354537743848,-0.75732421875,-0.152099609375,-0.765869140625,1023,1021,1023,1022,529,I
-102.74263730054616,74.79983592420002,-64.25795882355392,0.994758504238928,2.187884757448904,2.9865268934463725,-0.843994140625,-0.392578125,-0.406982421875,754,817,479,1022,1023,K
-9.604865541863054,27.77137067672232,-1.36505274145415,1.0040454497484788,3.506384775037816,1.6441411334294864,-0.91064453125,-0.21533203125,-0.03759765625,1023,1022,1021,1023,907,E
-97.33349418005125,76.62817898809017,-59.44752368705461,0.0176592675977067,2.1955183452351634,-0.7233967706757651,-0.84423828125,0.013427734375,0.244140625,907,1022,918,1023,583,I
-18.581889587839434,54.577414882736775,-6.8510440953741245,0.0431156347186884,-5.439567430025445,9.974943454905286,0.2744140625,-0.19677734375,0.767822265625,1021,870,1023,1022,1022,P
-42.746851059825104,68.90073203816668,-0.7653013480047716,2.2212312200524518,0.7435438443952163,2.360681495772988,-0.920816051682786,-0.1923868601527837,0.1158667120333297,1022,1022,1023,947,1022,S
-0.1447500684600203,1.220492378301549,0.5743811218033555,-0.8608990670059373,1.21063047780605,-0.554848741871643,-0.951171875,-0.2197265625,-0.217529296875,714,1023,1021,759,730,Y
-0.7423086250184574,1.6002473561911106,-0.1921294597679544,-0.5006361323155216,-1.6829587220808595,0.0729431721798137,-0.875244140625,-0.286376953125,0.14501953125,663,1023,1022,1022,1022,A
-12.103582873965932,47.25328248096674,-3.9811778685842345,1.5439941952746157,-0.252267336749555,10.686613895120487,-0.9342963605216436,-0.0962929210876726,0.0955770878824161,1006,952,1021,1023,1021,L
-19.85118993567229,22.76101282419101,6.032123140477966,-4.607506361323155,0.9048275374611252,-1.3621713316369803,-0.840087890625,-0.100830078125,0.307861328125,1023,1023,1021,999,1023,M
-6.442538510692744,14.934906361384812,-0.2674589399077973,-3.2487277353689565,0.6910870794458579,-0.2400339270568274,-0.872802734375,-0.23193359375,0.16455078125,1023,1023,1022,1023,1023,E
-34.885850065669544,48.11881476406183,-20.69061415797,-0.598777212326831,-2.9990458015267167,-4.376448968052021,-0.952880859375,-0.132568359375,-0.33154296875,753,842,855,1023,942,K
-50.533871566178775,67.78321544072162,-28.1026846730564,-1.7251908396946565,-1.681779268031676,2.3802525504744243,-0.962158203125,0.020263671875,-0.132080078125,1023,1023,1023,1023,1020,T
-80.13932219477205,78.44447048120227,-48.46748153105545,0.1004678650578673,0.0874520702149365,0.3429837830231824,-0.931640625,-0.20263671875,-0.0439453125,772,709,1021,1023,979,V
-55.41008503852332,66.57734151660223,1.7286448150136,0.5184038047065269,0.9589100100232668,-0.2316732537318698,-0.7894784136407675,-0.2787692278680663,0.324363485218465,959,999,941,589,803,C
-9.759813845388615,36.63904948572993,-2.349984982631782,1.1576194515125815,-0.6380407124681934,0.5627297144472722,-0.94580078125,-0.056640625,0.01123046875,1009,1023,1023,1023,323,I
-0.7336685626646052,1.1635309019158548,0.1765748337192408,-0.8232019048953007,0.6523215911478393,-0.0040619090972751,-0.853759765625,-0.390869140625,0.034912109375,713,404,1022,1023,1021,L
-1.0849242409174211,2.9037187992789844,0.0584560810834428,-0.1459176135364269,0.9171210468920392,-0.3727090442185248,-0.708740234375,-0.35986328125,0.397216796875,1023,1021,1022,908,1023,O
-0.1743216752719964,0.5189646466425242,0.0185926612708843,-1.6251099306996868,-0.4012030815773737,-0.6202202131776124,-0.890625,-0.298095703125,0.0068359375,1023,439,453,499,550,B
-83.35458790047426,77.9026036316384,-43.85392194264581,-5.119601178641171,0.8738664086632366,-0.5915402602647667,-0.9283603615390106,-0.2155947980587981,-0.027691004429814,1023,1023,1023,1023,497,Y
-3.4566454057281657,25.788910462877947,-2.5709839132200183,-2.2877438507209504,-4.0038167938931295,7.038804071246818,-0.9345703125,-0.22314453125,-0.115234375,1023,1021,1023,1023,1023,E
-58.31988094034324,67.37831105218538,-4.836476527530851,1.6201146797059145,-16.05776198684349,-1.0162169768178146,-0.741943359375,-0.3134765625,0.181884765625,1023,1021,1021,1022,1021,E
-2.3011725942293806,-0.0411624712190436,0.2108510983216213,0.5841108283856378,3.3095490528696634,0.3925996607294316,-0.0439453125,-0.938232421875,0.087646484375,537,606,1023,904,1022,G
-61.69278071788317,63.28772688437946,-31.95881090800541,-0.0208956273964892,0.452457170999402,0.5847961445105014,-0.947998046875,-0.14404296875,0.029541015625,1021,1023,996,969,1021,M
-1.470646798929159,3.126804209973764,0.5519448043002146,-0.6781637369563694,0.5530849499264653,0.2554800756355493,-0.8798828125,-0.318115234375,0.099365234375,1023,1021,1023,620,1023,M
-74.69514380405944,88.91010573339268,-42.75841524431378,-0.0663101980511482,-0.6060083723220885,-2.624160129454391,-0.967529296875,-0.0634765625,-0.16650390625,824,860,370,1023,1021,U
-15.431505455229402,50.20744164598657,-3.4737623130553565,2.4247950240316656,-0.5846055979643766,-0.0326901328809721,-0.94140625,-0.154296875,-0.343505859375,1022,882,1023,1023,981,R
-32.85090181101204,42.70218519213386,-1.2275694208081045,-0.3174300254452926,0.4468122702855525,-0.2400339270568274,-0.6689453125,-0.563232421875,-0.621337890625,1022,1023,1023,1023,655,Y
-11.901457775676011,33.02054539049302,-1.1563590698238488,-1.5631603354889618,14.293062559194484,0.9318982908814571,-0.1751476949170146,-0.8892828354781739,-0.1294504320971261,858,1022,1023,1022,1023,G
-35.21554468013281,56.61009991246431,-23.87668364015312,-0.6742313962003186,0.9136369442739588,0.5537420996339123,-0.8965811386869946,-0.243025051091227,0.1151165574647189,1022,934,1022,1007,870,L
-0.1072822896326903,0.161455424983899,-0.0321730101532613,-0.844147582697201,-0.7821953633022336,-0.4919423240033924,-0.87744140625,-0.278076171875,0.138427734375,684,1023,1022,1023,1023,A
-2.6961181255633315,21.06905984074788,-2.2541573109004203,-1.0024143440440263,-2.3399609444345826,-1.6545712764068885,-0.88671875,-0.322265625,0.04638671875,863,558,1023,1023,923,D
-4.516334382617955,39.83005635048987,-0.1495852971295531,4.616659598529829,0.8438648572236358,0.0787743850720954,-0.31787109375,-0.92236328125,-0.1943359375,900,969,1023,1023,1019,G
-0.702894963078321,1.5375771407891858,0.0434589872434406,0.4207308453491662,1.203774385072095,0.3704057110545663,-0.832275390625,-0.418701171875,0.1123046875,939,422,426,1022,1021,V
-48.82007648956938,48.655977245413816,-25.574139530497902,-1.0599781897491811,0.2086044957258944,0.127871389875822,-0.21728515625,-0.950439453125,-0.36572265625,461,805,662,1023,1023,H
-28.06261467649832,41.958994188862725,-12.30573818443578,-2.808736217133164,-0.0102841391009328,-2.2715578173593443,-0.942626953125,-0.129638671875,-0.143310546875,899,1023,1023,1023,755,I
-62.35510742726075,66.2732680971015,-8.237723717584236,2.482710099553243,-0.4241742005839519,0.4646990537165363,0.02294921875,-1.000732421875,-0.1201171875,880,768,444,866,1023,H
-0.2666465132198154,0.137800274879486,-0.0484261683028503,1.5460155525433406,-1.0991652992794487,-0.1995790825426269,-0.552490234375,-0.464111328125,0.486328125,843,400,593,456,246,B
-27.02859586926785,40.83635957031676,-11.78650788105496,-0.5362796078483929,0.057935405179489,-0.1121475141202754,-0.9603199886232168,-0.0779927645286383,-0.1319061212992255,863,1022,983,1023,1008,I
-7.334130262173327,18.13093652376751,-0.8311366235636043,-0.4271202851840252,-1.1257129957241223,0.2884527556941619,-0.8204414807107179,-0.4177518206218339,0.1418509272049719,568,957,864,891,368,C
-65.35409674475153,62.5840019296866,-35.01112172110573,-1.946953633022336,-0.3322731128074642,-0.1777283008199042,-0.84326171875,-0.220947265625,0.257080078125,573,652,1022,1021,905,R
-50.16130603192334,64.9062938717447,-34.67697180709035,1.0338008166163697,-0.2532575892064621,-1.081874667140067,0.40478515625,-0.26220703125,0.740478515625,404,721,1023,1023,924,P
-51.937960837539634,61.664153772345344,10.150226961469134,0.1004678650578676,-0.1842262637633235,-1.9983818201006087,-0.702880859375,-0.5498046875,0.165283203125,1022,1022,1023,1023,1022,X
-79.41548886958076,77.98104477997973,-40.56713836904211,-4.578448428901118,9.780578732469378,0.2611752174684882,-0.92041015625,-0.224853515625,-0.021484375,1023,1021,1022,1023,496,Y
-28.718510147215618,39.70764175042112,1.5395069164356503,-1.6786646586859817,-1.637378861959859,-0.9381316077665212,-0.8132481761741259,-0.2117736778147661,0.2669782106606709,1022,720,354,383,1021,W
0.2223498649978708,1.6243656785294018,-0.2720679978985851,1.3837386827622928,-1.7143973016154792,-1.0703710278714715,-0.9501953125,-0.11474609375,-0.17578125,894,1022,1023,1023,1023,A
-24.76559810272334,38.77387870044286,-10.360569211353544,-0.0810608727701379,-0.2932773246038156,-0.7325562504787776,-0.1596980806919126,-0.966663446873554,-0.2611410390588853,442,765,813,1021,1021,H
-54.06654047824434,64.75155839302748,-31.445252656829783,-0.559061784144725,-0.8337498798435354,-0.0972888317106595,-0.9494709116034048,-0.0969711693580206,-0.056387290359579,1020,1018,1023,1021,1022,S
-0.8866471947365298,1.781621684993268,0.3654389015221667,-1.7919848818669626,0.6344203904102332,0.2298024022989002,-0.859004980893865,-0.3969878889245399,0.0389477921468609,719,395,1022,1022,1022,L
-0.3470882870641139,0.9776467418309276,0.0855252363879356,0.0708934124964665,-0.3965578173593441,0.1545094713033652,-0.87548828125,-0.286865234375,0.045166015625,978,1023,1021,981,1022,N
-74.32943801790535,79.08541172012553,-37.46879705165743,1.842086748513737,0.8978084215710412,0.7651528476448457,0.532470703125,-0.275634765625,0.65673828125,786,952,927,944,1022,Q
-3.225507106717361,30.22327191687769,2.1474756947927345,0.2937210413787969,-1.3074583020639323,1.38017901694121,-0.916607590885204,-0.2132211694876699,0.0641333454859085,1023,1021,1023,1021,1023,E
-61.59513925686664,70.26781110120605,-23.38402305638604,9.964224153093893,15.29475498645654,0.2537024659654563,-0.929931640625,-0.117431640625,0.011962890625,595,1023,1023,1021,1023,A
-35.12491365073842,56.4865759978902,-23.805082697977934,-0.4833775630943602,0.271596236876961,0.8821674108462898,-0.8818639459269063,-0.2567742363163623,0.1085055562107426,1023,935,1022,1008,869,L
-63.497860764570106,73.30488549190298,-17.018967204176747,0.4875221410023785,-0.0656106712899491,0.8344400704946371,-0.7608428566481619,-0.3431552555669113,0.331738513011397,883,1023,1023,711,969,O
-85.62243948221474,79.8699823741709,-53.74712566785108,0.2848348401167906,1.2489534597389802,0.3376719316143113,-0.81494140625,-0.3896484375,0.185302734375,873,740,1022,1023,1023,Z
-85.99603652007089,68.11399779647272,-47.38665085011652,-19.81535160234987,2.4299433637035204,-8.713300735216515,-0.936767578125,-0.198486328125,-0.07177734375,1023,910,1022,1023,1023,U
-15.223732678866812,40.09473923176024,-6.371692384705193,-4.893152818668893,-1.795770148233439,-0.976597874385305,-0.3099811503431282,-0.9172321155370452,-0.007619286214922,741,891,988,1023,1023,H
-0.5666547228730361,0.7275002995962849,0.1436636765823926,-1.052209538483087,-0.8591287905315499,0.9883045031164654,-0.8525390625,-0.4052734375,0.01953125,633,398,1023,1021,1023,L
-2.9416933216454546,-7.035239783939388,-0.9515059502229956,-2.7725401906638054,0.8308650226896964,0.653639145882436,0.591064453125,-0.17236328125,0.662109375,650,696,1023,1021,1023,Q
-31.12040862275829,41.78684451841293,0.0922203920959006,4.293256997455471,-2.202042691546509,-2.285835453774385,-0.8134765625,-0.476806640625,0.073486328125,1023,1022,1021,1021,1023,X
-0.8110881179402489,4.521161459574072,0.2288577893914377,-3.3900868892250324,-4.04893235304464,-2.655996060083723,-0.920166015625,-0.2373046875,-0.05322265625,1022,1023,1023,1010,1023,S
-38.58488734400856,59.322465035558615,-24.9037138387866,-5.13282442748091,0.6778981004793186,-0.5314042251020773,-0.934326171875,-0.098388671875,0.04833984375,1021,1023,1022,1016,1022,M
-46.55993102010412,68.73447533539856,-24.50097748305611,2.183206106870229,-2.185596061924806,2.8917029321538137,-0.96435546875,0.012939453125,-0.139892578125,1022,1022,1023,1021,1021,T
-78.3169549491395,78.93366277641736,-42.09917811577317,1.5978119393534318,4.706968726914553,4.001794069018891,0.485107421875,-0.329345703125,0.66845703125,566,848,571,1013,1023,P
-1.0881757073905596,3.186198077295756,0.063047196605472,0.755056812185598,-2.094171034579801,0.2171878847574485,-0.818603515625,-0.3486328125,0.206298828125,973,410,382,261,1021,W
-68.15123949066626,68.75302047749526,-18.434425228897137,-2.9829387554085898,-1.935624582263341,-26.14598796918423,-0.893798828125,-0.31298828125,-0.00439453125,1002,1021,913,802,1023,M
-94.99366437118007,74.98039249481008,-59.98364869047179,-2.768600274387026,-0.7815808914060579,0.2384352903929374,-0.8779296875,-0.154052734375,0.225830078125,1021,1023,1021,921,1023,M
-95.86466292985943,77.31200573790689,-58.0622625959843,1.0492312733029563,0.008161449484628,-0.5357439384891897,-0.8732317598872701,0.0012586276703412,0.2608535922163056,908,1022,913,1023,583,I
-105.28179329431312,76.6276331902342,-71.465701029994,-1.7190989827514345,-1.7187845626008889,-1.820266068041463,-0.9235562744024536,-0.1919112548557248,-0.2346603655111816,849,1023,1022,1023,786,Y
-123.57500986769216,76.45177636764049,-90.6526165524387,15.962549936069568,8.209642523465401,4.959625502552597,-0.7302771943449984,-0.6335972899961455,-0.0571396400928525,741,715,1022,1022,1022,Z
-129.47727476738794,75.39509465401065,-100.77382680538923,14.575098953915743,10.619168787107716,6.0746395250212055,-0.7294921875,-0.62353515625,-0.077392578125,738,714,1023,1021,1022,Z
-58.07133653941181,58.02710699957154,4.864966767811459,15.2455060329968,8.624934041580188,-15.189221514757095,-0.74609375,-0.42431640625,0.299560546875,1023,946,1021,1022,1023,Z
-98.62710640275598,77.74534865786566,-66.40418590851255,-1.7606149083617688,-2.129137791536216,-0.2317866816758711,-0.945556640625,-0.2255859375,-0.099609375,865,587,1023,1023,1022,W
-3.1249185269614275,-7.387008820392666,-0.9251680762455998,0.403032328420164,-1.970661694867556,-1.4150631441939,0.582763671875,-0.21533203125,0.663330078125,626,700,1022,1019,1023,Q
-35.778253051581096,57.34427863340948,-24.29074021913437,-1.056050325134295,0.5559089623975116,0.6456743002544523,-0.896484375,-0.2529296875,0.088134765625,1023,926,1022,1023,872,L
-92.27832550725388,83.40928813093014,-55.486190036126814,22.74480683452593,-7.194632786417911,-4.448885135587117,-0.8750480589179399,0.0907459115077784,0.0559514047431889,1022,1021,1022,1022,1023,S
-2.307192713239135,19.749068134509,-2.113669308180879,2.0739215338185693,-0.9048464406177884,1.4675661281732646,-0.86767578125,-0.349365234375,0.097412109375,884,634,1023,1023,930,D
-84.32206365988364,72.51590030364596,-39.21850602064634,1.3741518235793069,-4.185008481764206,-1.9069126378286687,-0.32763671875,-0.388427734375,0.7109375,895,532,1021,1023,993,Z
-13.74313638716047,18.757754154369287,-2.097739080719823,-3.989185750636132,4.828491659598529,0.3477523324851571,-0.79345703125,-0.21875,-0.75634765625,1023,1023,1023,1023,511,I
-57.53238209289204,68.76039067438779,-2.751983237366748,1.7834774472602175,-6.709558768224888,1.474260084007928,-0.0465033058364244,-0.9809124872268504,-0.2087853460663649,777,706,1022,1022,1022,G
-34.19898680688228,53.69495117866384,-23.14170513137071,4.056155991161361,4.24861982951828,1.6963587816959549,-0.8740334200954409,-0.2925503469180865,0.0459986936897228,1022,1021,1021,1022,977,L
-47.318671719874985,68.48068726093912,-25.12757809769789,1.4045801526717556,-3.895519726046943,0.922237283298852,-0.95849609375,0.03564453125,-0.135009765625,1023,1022,1023,1023,1023,T
-89.17238829892123,80.86008299779151,-57.14194354966472,0.7810180462236609,1.2794878108840184,0.7498856720723266,-0.826904296875,-0.36572265625,0.17041015625,907,766,1023,1021,1023,Z
-33.01270452651885,42.77815204066019,-1.3572771549649718,0.9344783715012722,-0.1791419281877299,-0.7438507209499574,-0.646240234375,-0.591552734375,-0.6064453125,1023,1023,1023,1023,647,Y
-15.121246803049766,53.0748491327348,-2.690534675603807,-1.5752049759683344,1.6138676844783717,0.1886839129205546,-0.95263671875,0.05712890625,-0.0361328125,1021,1023,1023,1023,1023,S
-60.52235842990106,76.02123110774167,-22.59170623375176,0.3306363668343479,4.661167200196996,0.1926337636753801,-0.8544921875,-0.16357421875,0.252197265625,765,1023,853,660,910,C
-0.1091905278541976,0.7859420556456131,0.0571789512803977,0.1649703138252755,-0.6448614645179532,0.0171048911506921,-0.913330078125,-0.20703125,0.06005859375,929,1022,1023,976,1023,T
-0.9410625839074772,4.447351093927537,0.1763709859758285,-3.0544953350296864,3.785623409669211,0.5263641504099521,-0.943359375,-0.0625,-0.2421875,761,1023,1022,1023,1022,A
-79.14403727029526,68.45362714216546,-41.36046235822334,-0.9875118725155672,-6.291131670594859,2.3878706863193444,-0.85498046875,-0.1572265625,0.279296875,707,474,473,1022,1023,V
-0.8055115890774022,-4.4782486025086765,-0.3086713195883936,0.2885285116262708,0.7774299081858796,1.119288000844268,0.669921875,-0.17529296875,0.616943359375,660,385,943,832,1022,P
-66.30087735991994,70.24028613758382,-16.403169400228425,-1.4638547859429405,0.293383051324445,0.4646990537165363,-0.866943359375,-0.27392578125,0.15771484375,570,489,1023,1023,1022,L
-28.086939701111024,73.81279465271352,-15.73661581697464,1.050749222504948,-1.012086513994911,0.8757068136839135,-0.935791015625,-0.17822265625,-0.232177734375,1023,1021,1021,1021,440,Y
-0.0993649916636842,0.2978683579900099,-0.0011129021472372,-0.0232683409557196,-0.77600749536289,-0.1629154494494552,-0.918225045388488,-0.2735812124255232,-0.1280853348127926,614,1022,1021,1023,1021,A
-7.753826608095122,19.06155460772968,-0.9923127336314724,1.5807858725859214,-0.2385056460407361,0.8371970309916625,-0.947998046875,-0.184814453125,-0.03369140625,686,665,1023,1023,917,D
-73.76859456568515,79.1125520671262,-36.90019919637876,-1.0530475066706055,1.6485135370075366,2.7153009829014616,0.5341859282128776,-0.2654387269211919,0.6613707124121224,790,948,923,941,1022,Q
-57.96462711992094,63.3933084076919,4.685816601773839,-1.5025855700566364,1.960811904175608,0.9558166531818336,-0.756103515625,-0.246337890625,0.42724609375,970,745,500,1022,1023,V
-63.386512114763775,65.60289700462896,-9.46720441784358,0.8414887255074411,-1.4470749639427305,1.6479051605867654,0.044677734375,-0.99951171875,-0.11181640625,877,750,439,868,1023,H
-55.59602945580683,64.10107002682614,3.255928594765812,3.5056108629120213,2.0185738910191016,1.57156928272417,-0.828369140625,-0.3203125,0.21875,855,616,382,336,836,B
-30.06248809300113,41.39929189753845,0.6937194519302377,-2.7562963690115625,-2.828841195842688,0.9129045731011765,-0.8366372807456994,-0.429666209095823,0.0926215820786206,1022,1021,1022,1015,1022,X
-3.860795072455196,26.878476947338164,-1.09648558835017,-1.1885072094995763,1.9427480916030533,6.466284987277352,-0.938232421875,-0.178955078125,-0.118408203125,1023,1023,1022,1023,1023,E
-45.40360594581395,71.72585399832538,-4.875264701963702,0.2384596630689394,-1.4407513839298869,-0.430144897405715,-0.8919504461781723,-0.2366015936798882,0.0994646509644051,886,1022,1023,911,1021,T
-52.6205362823491,67.42167791461483,0.8338241352714328,-0.4638547859429405,6.247581524606888,-0.8559116333063645,-0.7880859375,-0.18994140625,0.34423828125,1005,1021,568,295,660,F
-55.02777797588156,65.61361714656144,0.712489545685843,1.7193513209272884,-0.8440215288282267,1.640271572800506,-0.809326171875,-0.445068359375,0.0927734375,1021,604,1023,1021,1022,D
-2.5428396568769256,4.960687497890528,-0.1351168267310763,-9.95376598691797,4.599656737856661,5.050972753511691,-0.7892877402779203,-0.5441820460323055,0.0700020484289512,1022,1022,1022,934,1021,C
-64.66749402723626,65.56869759422091,-26.004697417465643,-7.585992190523093,8.3773525169733,9.121187603334857,-0.464111328125,-0.488037109375,0.546142578125,981,481,1022,1023,1020,Z
-79.27185498652923,79.02218198496625,-42.82226296413898,4.880254687445035,-1.6594434868259054,-6.059274633271185,0.440673828125,-0.383056640625,0.66650390625,568,861,573,1015,1022,P
-46.731307544935135,60.95079149109857,-32.80258144045255,-0.7894402035623408,-5.5795518801244,-0.0083404014701722,-0.96044921875,-0.06103515625,-0.2314453125,1023,579,1022,1023,1022,R
-63.24597837427177,66.7609894815004,-33.15373686040102,-2.23590248707215,1.6733035494424315,-0.9321771555211597,-0.938720703125,-0.17626953125,-0.048583984375,1023,1021,1022,1021,1021,N
-16.24892112779424,19.4556772367976,-2.585626268716198,3.0795165394402035,-4.087538874752616,3.538592027141646,-0.773193359375,-0.157958984375,-0.787841796875,1022,1023,1023,1022,530,I
-56.11435599330597,66.32885470729671,1.7373805227920862,2.2842368171104948,-2.744784887606853,-0.0467513279628528,-0.849609375,-0.30859375,0.1865234375,888,551,355,302,679,B
-47.771435192086585,48.7350251586869,-24.76499533844318,0.1003271537622689,-0.6539909241214337,1.4255813135399442,-0.221923828125,-0.95068359375,-0.349853515625,460,803,657,1023,1021,H
-35.31108198625048,42.80461141889314,-5.7077930351107815,-0.1743412952474759,0.6173004537939284,0.3985647447848872,-0.8603515625,-0.279052734375,0.21484375,521,1022,1023,1023,1023,A
-64.07401817832583,85.29847022909732,-28.03905292745081,-0.3563865339290109,1.6688007879832552,0.0475955957364486,-0.953125,0.0810546875,0.1640625,919,1023,1022,1014,1023,T
-88.7747949188105,80.3337808337699,-51.69384888035106,-0.1350124881274841,2.203151933021423,0.3911070461181281,-0.942626953125,-0.093994140625,0.0419921875,921,1021,867,1021,1023,N
-109.87481235466906,74.13449309855908,-71.18920683485459,-0.2800506560664154,0.7451366658458505,1.169733000316601,-0.857177734375,-0.386962890625,-0.380615234375,743,797,447,1023,1022,K
-0.9069968905796064,2.4791539847798743,0.0811456255556277,-0.1823618390966332,0.186583177964611,0.5324515425475783,-0.90966796875,-0.254150390625,0.042236328125,1021,412,442,498,533,B
-20.553064562889336,39.63709982308536,-9.127595882321195,1.3974592967878712,-0.4698132609666263,-0.0833278473330023,-0.3135350006910696,-0.7932663697962686,0.3406826603964178,821,647,614,1023,1021,H
-53.51459007064791,61.58376351193002,-31.2198436344482,-0.0321395448384104,-1.6293786116858096,-1.1110080616394384,-0.94580078125,-0.033935546875,0.00830078125,939,1023,1022,1022,1021,S
-54.11023796439629,64.87805562371304,-31.46374067614788,0.6575841108283855,-1.692889454339836,0.3663415323720673,-0.9580078125,-0.1005859375,-0.058837890625,1021,1023,1023,1023,1023,S
-63.02861473338204,66.36954954553154,-33.031037566021666,1.3153802657619451,0.1264136273678257,0.4147229290359064,-0.931396484375,-0.139892578125,0.007080078125,1023,1022,996,1023,1021,N
-60.21463018416494,56.6383585136365,-1.0382120929892946,-3.914799310514652,-1.947585042389277,-2.700671896436486,-0.88330078125,-0.26123046875,0.148681640625,1023,1023,1021,963,1022,M
-21.41630544319463,26.866678551208096,5.514344912326065,-7.981552162849874,-1.660057958722081,1.4088210347752337,-0.859619140625,-0.452392578125,-0.124267578125,1023,1022,1023,947,1023,O
-75.4112746143308,67.47411819400037,-44.27853987879798,0.3249023815386777,1.033207865761424,0.7499208498962244,-0.8115234375,-0.51513671875,-0.0849609375,717,1021,1022,1022,817,O
-41.758312538226974,61.95934591712425,-27.40668744177741,2.4324692400552976,1.384085135210242,-1.5281793695362074,-0.9135673584399352,-0.1393911423623372,0.1063372458613631,904,1022,1022,1022,1022,N
-57.41459217772697,63.48300206555535,5.127218176146027,-1.2125092341787738,-4.581172828648819,-2.097618461321983,-0.756591796875,-0.215087890625,0.427490234375,971,740,501,1021,1022,V
-58.79918529207594,66.43335408980413,-18.08374126381188,3.765152847644846,4.079642593309178,1.5486685193653913,-0.80810546875,-0.3837890625,0.2138671875,978,528,376,279,1021,W
-0.9710411583377422,0.0438396384324299,0.1380913930579767,1.3856375459428898,3.7370299689001976,-0.4852629346904156,-0.05712890625,-0.95703125,0.103515625,536,611,1021,922,1022,G
-12.36954186357076,34.77613744718383,-2.708032802569254,0.0271572800506563,1.5112393147359906,0.5885953494916804,-0.933837890625,-0.1611328125,-0.046630859375,538,1021,1021,1021,440,F
-73.68072862693583,82.44681791883016,-35.51656275498763,-0.3105850072114536,0.3023885742427969,0.7727864354311053,-0.947021484375,-0.139404296875,-0.015625,653,1023,459,629,595,F
-47.6110868059397,62.39156389985594,-33.99110928803569,0.369296795300243,-2.6352411439828334,0.4306117423576177,0.572998046875,-0.24609375,0.640380859375,288,688,1023,1021,1022,Q
-64.2150921185026,57.95440395489388,-3.804589522305854,0.8867274070426004,-5.245294966053399,-0.548000140711296,0.31591796875,-0.49755859375,0.658935546875,767,904,1022,1021,1023,Q
0.5815564146726948,3.3799007652499293,0.5361931153720113,1.5446620467341217,0.2510916723166416,-1.240972444486612,-0.8788587488241355,-0.204142428930187,0.162323104593151,917,1022,1022,795,495,I
-66.46646928899617,81.93274215375443,-28.355388412300947,-0.4785239385091635,3.798571780349667,0.6277482674921739,-0.9443359375,-0.14013671875,-0.01416015625,652,1023,460,640,594,F
-61.18483115232463,72.22774928668976,-23.329926670140555,-4.669363633165652,2.1955183452351634,-1.1814120378513375,-0.96337890625,0.073974609375,-0.11572265625,1023,695,486,379,579,B
-0.3373859162781533,0.7858081400518692,0.0323138498437769,1.1535552728300822,0.2648430873621713,0.5001767034209785,-0.83154296875,-0.415283203125,0.108154296875,941,406,427,1021,1022,V
-0.1982990693794946,1.06234531988445,0.1112350439100234,-0.6947965543805599,-0.440086840815183,-0.3808389943273329,-0.84814453125,-0.329833984375,0.139404296875,1022,1021,475,250,517,F
-50.70251889269933,78.08194786872443,-38.74735796154943,0.1957873904438792,0.7131043256997455,0.7917373480350585,-0.8828125,-0.315185546875,0.065185546875,1022,903,1023,1023,1021,Z
-48.68542736456924,52.7564931572262,-14.373880275474026,-3.342280226545186,-0.9475850423892778,-1.731206247581525,-0.914794921875,-0.133544921875,0.155517578125,1023,1023,793,961,571,I
-52.2215035787166,65.88194966648301,4.316723937049115,-1.5401906638055358,0.3773525169733,0.136454778907376,-0.787109375,-0.31982421875,0.30908203125,1016,1023,1017,704,884,C
-27.854351350946143,41.81818378411049,-12.213354535844656,-0.6791922147066689,0.3062457967110139,0.68599400219182,-0.955260006699883,-0.121672229546103,-0.1551418798379647,902,1023,1022,1023,756,I
-66.59589640115266,61.19392549468079,-36.01086352803801,-1.4857930449533503,-0.0661577608142486,0.645002827254735,-0.871826171875,-0.217529296875,0.18310546875,400,646,1023,1022,1023,R
-54.565897421157885,55.48851429615797,-29.292869965493207,-3.524773819621148,-2.446211478654227,-2.01558524173028,-0.928466796875,-0.2412109375,-0.275146484375,516,654,823,1023,1023,K
-70.62772938738122,75.29698420226119,-39.6783436250705,-0.4746960701159175,0.85202855527283,0.3104325699745544,-0.942138671875,-0.1337890625,0.012451171875,843,1023,1022,1023,1023,T
-51.0159072693054,65.41384919361816,4.802676839640316,-3.733849219042568,-1.8620402087076104,-1.7138175587625262,-0.8525611591833291,-0.3913976099929506,0.0720374215928608,809,618,1021,1023,1022,D
-67.46227941865942,84.73106847996027,-31.01068243576712,2.3382699546206074,-7.132725929573996,-7.647060892813169,-0.929443359375,0.034423828125,0.08349609375,881,1021,1023,979,1021,T
-94.12466776134524,78.04851153631344,-56.42001715452504,1.186071425520666,2.084899866474897,2.282026553889922,-0.8775896623553275,0.02781371326488,0.247276615791072,912,1021,907,1019,569,I
-13.878754455524923,43.61251614468853,-5.175293356345491,1.6919705965507497,-4.393765903307888,-6.948720667232117,-0.952392578125,-0.05322265625,-0.33349609375,675,829,1007,1021,955,K
-4.05843297506051,28.58335636145188,0.9144923351489168,-0.0040265791616705,-0.3839396490052916,4.20856799445868,-0.947379326113855,-0.1502151301777003,-0.1194053635278149,1022,1022,1023,1022,1021,E
-47.41169153818621,62.2706326033716,-33.736926401681,-1.7223062581348718,1.3342245048721284,1.3313751011362438,0.5869140625,-0.2490234375,0.623046875,288,686,1023,1023,1023,Q
-86.57277454600496,69.46769565419777,-47.60027515872187,1.0971868815380266,-2.056368391292055,-0.5288379983036471,-0.910888671875,-0.256591796875,0.003662109375,876,821,1022,1023,1021,U
-69.79818667697923,79.90190962224942,-31.801481309646263,-2.5930277553030567,0.6077320856931787,2.589580328560876,-0.91162109375,-0.126220703125,0.10498046875,1022,1023,1021,1022,1022,E
-11.169009503872603,31.20365532163757,-1.9290969163032208,0.8185879621486611,-1.8495444471804967,0.3434059169099805,-0.9306640625,-0.140869140625,-0.078125,748,1023,1023,1023,482,F
-66.75576347167684,75.72877767577535,-28.37371359943184,0.9184226263763328,0.4626939177542474,-0.0287402821261466,-0.860595703125,-0.148681640625,0.25341796875,796,1023,873,673,929,C
-62.68295700627393,62.58690143122062,-0.1631120017276232,-0.1132725929573995,2.113483659900799,3.322228866922292,-0.883544921875,-0.2177734375,0.1435546875,1021,1023,1023,861,1022,T
-32.35025210632432,42.339964961854015,-0.7777215086823352,-1.2334605597964374,-0.9959358213175008,-0.4156064461407971,-0.6728515625,-0.569091796875,-0.623046875,1023,1022,1023,1023,646,Y
-57.68443433891492,58.44511981589102,5.4910379665258455,2.589580328560876,0.6597952650649032,1.0982868399760783,-0.850341796875,-0.338134765625,0.138427734375,512,1019,1015,1016,1018,A
-4.484563942553815,11.831466291867375,-0.3012794819117051,0.4733527983958916,-0.5693530798184825,0.0360220916734099,-0.945556640625,-0.173583984375,-0.082275390625,1000,996,1023,1023,365,B
-80.15742076724123,85.52682407391751,-48.51751570901542,0.8497203362999968,1.3405565131740946,0.4827100995532427,-0.833984375,-0.197509765625,0.2880859375,1021,1023,1021,1023,1021,X
-44.23038435604269,48.0924334220335,-21.98125841020063,0.0444647694093642,1.0802757941393744,0.7133710908643197,-0.547607421875,-0.62060546875,-0.69580078125,431,677,702,1022,1023,K
-80.81620023572827,79.48598665345135,-44.20111193917856,0.4146058324832029,3.4321595666092093,-1.1127097477750016,-0.796142578125,-0.353271484375,0.302490234375,890,1023,842,898,1023,O
-1.2020501147447895,2.7524601573105527,0.5316715734471016,-0.0903774774143847,-0.3782127599971988,0.5837243504447097,-0.875732421875,-0.315673828125,0.085205078125,1023,1022,1022,654,1021,M
-63.08919474018689,66.90612050481492,-8.804857274881442,2.7296158322614668,-7.712173332255588,-2.849303615965567,-1.0342306736248656,-0.1414642604137683,0.0303128155189135,1021,1023,971,941,643,I
