roll,pitch,yaw,gx,gy,gz,ax,ay,az,flex0,flex1,flex2,flex3,flex4,index_inside,middle_fingerprint,middle_inside_to_ring,ring_tape,thumbprint,label
-3.4545818321032264,13.991671943316955,-0.5035238323259034,0.9932540387005158,0.093591336765489,0.0267353097816435,-0.844970703125,-0.483154296875,-0.1513671875,1023,1023,1023,1021,1023,1,1,0,0,0,O
-33.26018001100525,76.59871445445296,-21.313513277482475,4.088917161436245,-0.0502544529262087,0.8451724625388752,-0.923095703125,-0.2470703125,-0.2978515625,663,1023,1023,1023,347,1,1,0,0,0,Y
0.1591069904464165,3.001806059489544,-0.2037631931023313,1.7682260662511378,2.1780236711254286,1.0355066881434274,-0.94091796875,-0.162353515625,-0.122802734375,754,1017,1021,1015,1023,1,1,0,0,0,A
-0.4572509305280119,1.077535985378917,-0.1519713646320665,0.4230279898218829,0.2330718122702853,0.416454622561493,-0.869140625,-0.29736328125,0.142578125,671,1023,1021,1023,1021,1,1,0,0,0,A
-101.7719001677312,74.43145805629112,-55.63958814676023,1.091709075487704,-4.513252756573366,-1.4412637828668369,-0.34814453125,-0.39501953125,0.67529296875,891,540,1023,1023,997,0,1,0,0,0,Z
-0.3858443018914076,1.1360687196382857,0.0769267292040259,-0.3732015337531218,0.3468885214760614,0.3416118478910898,-0.900146484375,-0.29833984375,0.01708984375,1023,433,449,496,541,1,0,0,0,0,B
-1.7864789565736712,-1.1816018219943365,1.848700038920783,-3.300986440796124,1.088953954477326,3.11276098853219,0.123046875,-0.408203125,0.76220703125,601,1018,1023,1022,1022,0,1,0,0,0,Q
0.3463612272137294,2.4551878167473644,0.2153303701202124,2.66426284870018,3.572132127906567,3.4885144404967106,-0.960205078125,-0.091064453125,-0.248046875,1003,1021,1021,979,408,1,1,0,0,0,I
-2.345612686184209,12.36517499195872,-1.9769432468314283,-0.229406181997925,-1.0377954029241163,-0.052776503869959,-0.9427751226258138,-0.0865975830358062,0.0041756675122066,1023,1021,345,645,412,0,0,0,0,0,F
-17.679570350724987,17.306495882755375,6.484843188646353,-1.3708651399491092,1.4926137970031097,-0.3316369804919421,-0.85498046875,-0.078857421875,0.2333984375,1023,1021,432,1022,751,0,0,0,0,0,K
-15.4425392220344,50.99067800039703,-3.2507961449996805,1.2721232683064745,-2.4395674300254457,1.684867119027425,-0.951904296875,-0.141845703125,-0.324951171875,1023,839,1022,1021,981,0,1,0,0,0,R
-61.080965462365086,76.78366171301165,-30.1708961247525,-0.9913814331445454,-0.1337109086431911,-0.3933584268477152,-0.900634765625,-0.14306640625,0.13330078125,697,867,1022,1021,1023,1,0,0,0,0,U
-1.319466358029388,-1.218463251185041,1.5650005747514804,1.96618913172296,1.0660531911185471,0.2806999198299,0.127685546875,-0.400634765625,0.758544921875,624,1020,1023,1023,1018,0,1,0,0,0,Q
-1.7852322382931352,1.6651424726933142,-1.679340477227851,-0.876731693525587,-22.8669423240034,-3.998268306474413,-0.9423828125,-0.215576171875,-0.254150390625,817,1023,1019,1021,567,1,1,0,0,0,Y
-78.74693897089982,69.35410898473043,-41.287029130274185,-3.2928553839659487,1.3424561156646837,-1.3296865655890526,-0.869384765625,-0.110595703125,0.26025390625,720,650,839,1023,1021,0,0,0,0,0,V
-0.6114632701470575,2.1045425627572305,-0.0065182120291731,0.3774580504449998,0.340169557111197,0.3935694937911131,-0.9208984375,-0.27490234375,-0.117919921875,610,1023,1023,1022,1022,1,1,0,0,0,A
-2.044751019590032,0.9297349196011953,0.0665653954730917,1.1555781217172063,1.787835282582814,-1.2851740317949436,-0.27587890625,-0.651123046875,0.547119140625,1023,710,1023,940,1021,0,0,0,0,0,P
-5.428193170539163,11.30040953701147,-0.5077836671014653,1.905019875470504,4.398775811728286,5.305836000984979,-0.91748046875,-0.265869140625,-0.1015625,660,468,510,369,567,0,0,0,0,0,REST
-28.90496459344552,40.145894846545325,1.3944548189452846,-0.7678117048346056,2.3170412779191403,-1.018659881255301,-0.802734375,-0.200927734375,0.265869140625,1022,716,364,378,1021,0,0,0,0,0,W
-3.7538196599320144,-8.815355514852792,-0.7543010590749374,-0.7343722517325079,0.1667428852851162,-0.1097196327435183,0.562255859375,-0.226806640625,0.6611328125,645,729,1021,1022,1023,0,1,0,0,0,Q
2.0294811561524657,11.41516717545819,-0.6040801485413206,-0.9645983612297782,0.3001610757055812,-1.8652566706351985,-0.9541015625,-0.119384765625,-0.099365234375,1021,711,471,477,723,1,0,0,0,0,B
-62.58710717798235,66.15163045960435,-8.547514033638548,2.6201146797059147,-0.1875329792099061,0.3501952369226433,0.0361328125,-0.98486328125,-0.124267578125,881,767,442,868,1023,1,0,0,0,0,H
-93.83739658562052,79.60082311346764,-55.85180971427855,0.3382699546206075,2.6764343757695146,1.3147711682555328,-0.3671875,-0.908203125,-0.058837890625,723,791,467,1023,1023,1,0,0,0,0,H
-2.0983949817554146,10.16794505394813,-0.7768232829167936,0.1600239209202518,5.485278080697928,0.3299328103563507,-0.85205078125,-0.312744140625,0.125,1022,413,361,1002,1021,0,0,0,0,0,V
-4.481805125965842,-3.410439351711584,0.1070514940837506,3.986203515652356,0.1619511170250027,-3.0874711114223685,-0.95947265625,-0.12451171875,-0.010498046875,1023,1023,1019,1022,1023,1,1,0,0,0,S
-2.960943688155093,5.328957926043032,0.688659305519632,-0.1242128961902415,-1.3942378724452107,-0.0458015267175577,-0.935302734375,-0.254638671875,-0.107421875,771,620,1023,1023,1022,0,1,0,0,0,L
-1.894000548364684,5.877173600751433,-0.596618167753741,1.2855316882655778,1.0304278359666252,-0.1482336232913192,-0.914306640625,-0.303466796875,-0.016357421875,1023,413,1021,1019,1021,0,1,0,0,0,D
-50.533871566178775,67.78321544072162,-28.1026846730564,-1.7251908396946565,-1.681779268031676,2.3802525504744243,-0.962158203125,0.020263671875,-0.132080078125,1023,1023,1023,1023,1020,0,1,0,0,1,T
-2.034866580793022,9.93245734088921,-2.766036303895334,2.0773513551369147,0.8481336228027173,-0.2466209118285588,-0.16845703125,-0.976806640625,-0.126708984375,872,489,1022,1021,1021,0,1,0,0,0,G
-6.963637671325217,17.404859804481664,-0.7024770691427478,-0.0307454180884368,0.9584198121504204,0.1138706159636966,-0.822998046875,-0.414306640625,0.14599609375,570,961,866,891,369,1,0,0,0,0,C
0.8275808080845286,-0.4116371190681193,-0.1367454194358015,6.689133570197348,-14.23565624230485,5.808597460161114,-0.890869140625,0.0615234375,-0.186279296875,953,1022,1021,866,628,1,1,0,0,0,I
-9.000766632985247,-1.3114435781940788,2.827279962194673,0.0760557462007147,1.1372645143217313,-0.1565935989915254,-0.940185546875,-0.1943359375,-0.155517578125,971,897,641,1023,1021,0,1,0,0,0,R
-0.5213993928352004,9.50367308972047,0.4235488583432723,-3.3597284271994914,-1.1633306363668348,2.0947690575860967,-0.85888671875,-0.383544921875,0.11474609375,897,1023,1023,938,1018,1,0,0,0,0,C
-35.88796445345315,58.099560504484806,-24.262282918816663,3.2037280312444514,1.7863305521036752,-0.6361796556009237,-0.93115234375,-0.135009765625,0.00244140625,969,1021,1021,1022,1022,1,0,0,1,0,M
-41.702838136891074,62.93946121229816,-28.472556176837287,-1.8137618605978456,1.1291289148890635,0.5523649853749028,-0.9013671875,-0.28515625,0.040771484375,572,1022,1023,1023,839,1,0,0,0,0,O
-10.150487498555677,17.13288473254095,1.2957033495360726,-7.6416083301087,3.309811095085655,3.355647799627114,-0.963134765625,-0.082275390625,-0.135009765625,1021,1023,1023,1023,579,1,1,0,0,0,I
-1.3574170574007218,3.023570270992198,0.5772168117649474,0.1014633340043701,0.490131865110781,0.8652107407913432,-0.8505236109265301,-0.3685694359912673,0.1240400190517465,1022,659,1021,1023,1019,0,1,0,0,0,X
-0.9036619691029784,4.777035678938301,0.1416971879907857,-3.192756805744361,-2.037052528843808,-2.6235839520373663,-0.8896484375,-0.222900390625,0.128173828125,1021,448,463,544,1022,0,0,0,0,0,W
-1.3061734813088115,6.58900645858294,0.1036096683299986,2.470376076756075,1.1233629806008822,-0.4793402899362695,-0.88916015625,-0.206787109375,0.175537109375,1021,1023,1023,828,974,0,0,0,0,0,C
-5.623900198175101,14.565161658476486,0.6358834867897909,0.9473853178283512,0.2992081044446033,-0.0727687807662123,-0.7900390625,-0.427001953125,0.20703125,1023,1023,1019,964,900,1,0,0,0,0,C
-15.520153906030414,55.82193540744991,-2.59470696206432,-1.781311846197342,0.1940203562340966,2.6237984167373485,-0.955810546875,-0.020751953125,-0.08935546875,1023,1023,1023,1022,994,0,1,0,0,1,T
-0.2361884170531513,1.6809503596252038,0.2207270870891085,2.228867567756845,1.308004762238252,1.039008333916942,-0.847900390625,-0.341064453125,0.1396484375,1022,1021,476,258,533,0,0,0,0,0,F
0.916874257179806,7.974182161883035,1.0138293199281228,2.339659315804353,0.4153237206672321,0.0872914899632453,-0.87890625,-0.245849609375,0.17138671875,1021,334,242,285,1023,0,0,0,0,0,W
-66.88744898296618,74.42603009066457,-28.40277343374509,-0.0586766102648886,-0.964786998276287,-0.5859921905230934,-0.958984375,0.03955078125,-0.16552734375,1022,686,489,346,621,1,0,0,0,0,B
-64.52540641568851,65.4165699240087,-26.250961170571223,5.177366588102861,4.621627326133606,-1.8330108699475856,-0.4501953125,-0.545166015625,0.6103515625,983,478,1023,1021,1022,0,1,0,0,1,Z
-60.908949687299376,80.93655346658586,-22.79581476865805,2.437506595841981,1.233686284166461,0.6124810919196548,-0.94384765625,-0.12548828125,-0.013427734375,673,1023,472,680,600,0,0,0,0,0,F
-15.529148818135733,49.39564476442474,-3.3330017863184103,2.2482071116097417,-1.4681510724836055,0.6575662883943237,-0.959228515625,-0.0361045518034052,-0.0700454285342183,1021,517,1023,1022,1021,0,1,0,0,0,R
-0.5883045123191096,0.779651325325992,-0.0221420839152728,-1.2342250857903214,0.8894880593879115,0.1682890958750615,-0.623291015625,-0.5029296875,0.387451171875,1022,557,1023,1010,1023,0,1,0,0,0,Z
-5.116937888358978,13.685284721537014,0.7818167888097198,-2.8007062852250835,-0.0137689947920379,2.21730755511165,-0.810546875,-0.429931640625,0.183349609375,1023,1017,1021,933,909,1,0,0,0,0,C
1.7516355582305745,6.279873343653321,1.5460128339815968,10.558769200502477,-5.185525831203727,-12.658198208893854,-0.7413242246159368,-0.2105149254273862,0.3952656577319998,97,461,1023,1023,1023,0,1,0,0,0,Z
-2.832758586347381,8.657485826826992,0.0631132939239493,0.43277292342862,0.2775272891095338,0.9629529626371354,-0.8941464218909264,-0.2804141249840736,0.0587571795999048,707,667,631,304,577,0,0,0,0,0,REST
-58.83885930150026,66.30627138500469,-19.822758988027125,1.880254687445035,1.3634572765328734,1.0017940690188916,-0.909912109375,-0.277587890625,-0.007568359375,607,1022,1023,1021,1020,1,1,0,0,0,A
-9.02045041664013,31.75812295991861,1.4862874510863255,0.5652389030251624,1.4505230421260955,0.7282654792196763,-0.942626953125,-0.161865234375,-0.084228515625,1018,1011,1023,1021,1016,0,1,0,0,1,T
-8.564423611120027,0.3048228057813723,3.2717989054844647,0.6603229324233997,0.4417631125338589,0.6742181728638266,-0.898681640625,-0.24169921875,0.052734375,1022,602,1022,1022,1019,0,1,0,0,0,R
-1.696397763022268,1.1170148151427317,0.2514875918615936,6.432186552337133,-0.1677297919063073,-0.5397190560842132,-0.942626953125,-0.108154296875,-0.076171875,1021,1021,1023,1023,425,1,1,0,0,0,I
-11.958990510304192,32.419271680287544,-1.4489302092159446,-1.3309301668080291,9.667302798982188,9.76120299689002,-0.062255859375,-1.03759765625,-0.065673828125,857,1022,1021,1023,1023,0,1,0,0,0,G
-0.4401165330222178,0.2757402724254059,0.0830852112703776,-2.4834368897567907,-1.4402627374400852,-1.4718977454287243,-0.813720703125,-0.501220703125,-0.05908203125,1023,907,1021,1023,1022,0,1,0,0,0,X
0.0262635536650963,1.1027558858534614,-0.401727473675797,-0.8316389348154924,-2.948394132338974,-1.913497731030359,-0.93701171875,-0.092529296875,0.045654296875,1022,1023,1021,1022,1019,1,0,0,0,0,O
-4.887807569791641,3.0284734304463936,-0.1461377144250183,-1.001846263092491,1.7236286170779325,0.1482336232913188,-0.38623046875,-0.665283203125,0.466064453125,817,288,380,463,146,1,0,0,0,0,B
-1.9421256451839657,0.5494347790471198,-0.4310394734585641,-0.3700149818078045,-2.0380965969893725,-1.031640151244917,-0.560546875,-0.4638671875,0.4873046875,832,378,548,448,246,1,0,0,0,0,B
-20.681229023153943,69.64999156919122,-9.327812667536543,0.9973141080011312,-1.935750636132316,-1.032690132880972,-0.951416015625,-0.161376953125,-0.23193359375,1023,638,1023,1023,1023,0,0,0,0,0,W
-75.94346158793564,74.71526572524448,-27.34651731257141,1.726984908713548,0.2170471734618496,1.2814929468463074,-0.900146484375,-0.26611328125,0.03564453125,827,1023,984,834,1023,1,0,1,0,0,N
-2.8170453760080187,1.5418495559724197,0.1551832161354255,-2.12259471629085,0.5180638125725541,1.804938966475533,-0.356201171875,-0.91455078125,-0.0908203125,1021,1016,1023,1023,1023,0,1,0,0,0,G
-4.349504876566231,7.1516995051056975,0.2514653788156546,-0.039546225614928,-4.891150692677409,0.4029191405145603,-0.927734375,-0.21923828125,-0.075927734375,1003,637,463,1022,1022,1,0,0,0,0,U
0.3489905372440091,7.33350860432032,-1.421685004073003,-1.8395519726046945,2.073054148533924,-0.8546764642933572,-0.90625,-0.072998046875,0.18603515625,1023,872,968,884,519,1,0,0,0,0,B
-8.170872266407986,29.01882927042604,-6.703932761629964,0.4564674429239804,1.5618602033278222,-1.6790727125620009,-0.882568359375,-0.247314453125,0.140380859375,1022,617,343,1021,1023,1,0,0,0,0,U
-2.0321445992186606,6.462557840025859,-0.4265080244488641,0.4375769514897807,0.7688113413304253,-1.242164139726316,-0.918701171875,-0.26953125,-0.088623046875,583,515,519,306,634,0,0,0,0,0,REST
-38.94528916827264,59.467063522121535,-25.02016661721613,-4.413695327851558,-0.0839640473651859,-0.7282348073553208,-0.9362062254563136,-0.1161698697235766,0.0571701136127747,1023,1023,1021,1021,1021,1,0,0,1,0,M
-0.97526768850722,2.7519915685476666,0.7614637210535177,0.307207936117072,0.7787314876701724,-0.0387307841136952,-0.929443359375,-0.283447265625,-0.096923828125,637,1023,1022,1022,705,1,1,0,0,0,Y
-0.7836722514244628,3.176539037040077,-0.2646255119164913,-0.0169635284139105,-1.549724342663274,-0.5170695504664974,-0.950927734375,-0.18310546875,-0.0888671875,770,1023,1023,1019,1021,1,1,0,0,0,A
-41.7386729438171,47.09606038016193,-20.010971245262866,1.3138252756573374,-2.019296013570822,0.7635001413627365,-0.614990234375,-0.57421875,-0.672119140625,511,609,652,1022,1022,0,0,0,0,0,K
-0.7882976766410118,1.9473319955635868,0.0116138726073613,-0.3579343581806027,-0.6607450663101981,-0.3148767017272309,-0.892822265625,-0.312255859375,0.037353515625,1022,433,450,496,546,1,0,0,0,0,B
-0.0920170729916917,2.948704258269625,-0.7202903159594487,1.1378267140394691,-1.055264361346608,-0.0661694867555496,-0.925048828125,-0.109619140625,0.04052734375,1022,1023,1023,1021,1021,1,0,0,0,0,O
-7.370073267752887,4.151730341981286,0.98453385698326,-2.600465596571269,5.138714896778435,1.8267107421691149,-0.3603157861335538,-0.9142642389250764,-0.2004165960321546,1021,897,502,1019,1020,1,0,0,0,0,H
-14.90625441579209,1.9107674461244024,-9.004955456028137,33.28714838439821,21.794102269162394,2.0175328523127334,-0.65185546875,-0.767578125,-0.193359375,953,1023,1021,1023,528,1,1,0,0,0,J
-0.2446820393286175,1.219533222607711,-0.1430322467244486,3.5808209425120183,-0.088339272800205,0.7115761601701645,-0.9617709881142484,-0.0621288434350917,-0.2294045918612809,1023,1022,1022,1021,1023,0,1,0,0,1,T
-6.833732918710738,19.63930359140654,1.633306472777447,-0.9116333063636683,0.2343898406444575,0.333767193161431,-0.92578125,-0.172119140625,0.08251953125,1021,717,527,1021,1021,0,0,0,0,0,V
-3.393577180217072,1.9276643743915545,0.5782218498741144,-6.570654659302775,-0.7785204207267742,-0.992929257396138,-0.426025390625,-0.453857421875,0.603271484375,903,710,1022,1022,1022,0,1,0,0,0,Z
-3.1135806451383417,10.598153105954236,1.2078145952500297,-0.3202572801809443,-0.7021487135990955,-2.088528413910095,-0.8798828125,-0.30419921875,0.097900390625,673,499,1023,1023,1021,0,1,0,0,0,L
-6.234853446162222,3.6633823074785847,-1.1063593805145338,2.140706550683473,0.4923841647434758,-2.371986508077401,-0.45361328125,-0.85205078125,-0.2734375,1021,852,404,1021,1021,1,0,0,0,0,H
-10.233637253607975,8.566865475418863,3.2598555317936704,1.2439946774984247,8.854821766230128,0.4922613628405354,-0.939208984375,-0.120361328125,-0.090576171875,953,1023,1021,1021,219,0,1,0,0,1,T
-1.013793821077387,3.122259655921093,0.8102611465176599,7.154536180391881,4.542090266296126,-1.3975094100678938,-0.9453125,-0.259765625,-0.12353515625,636,1022,1021,1023,704,1,1,0,0,0,Y
-0.6024437823333819,2.079246944469322,-0.5355677677274824,-1.6875069578815374,-0.7993815834258182,-0.8399194777191247,-0.8997413031852971,-0.268019202742241,0.0197110348082258,1022,1020,1022,1022,488,1,1,0,0,0,I
-8.66597953094583,17.669386450020017,-5.064814377688979,1.0347045518801243,-0.7846338705117333,2.5584888323437944,-0.3916015625,-0.89990234375,-0.30029296875,1015,875,1021,1019,1023,0,1,0,0,0,G
-76.45316601558446,63.97535280898826,-44.92439929328568,-0.7434481302986596,-2.5007563232138463,0.4058113765082489,0.630859375,-0.235595703125,0.591552734375,932,747,1023,1023,1021,0,1,0,0,0,Q
-1.207837850728031,3.744474217402977,-0.4484531591233972,0.0488904668915319,-0.0306408663234512,-0.3314397301615481,-0.911376953125,-0.309814453125,-0.02392578125,1021,462,1023,1023,1023,0,1,0,0,0,D
-0.0881719395766631,0.2749494113569615,0.1308703174482761,2.0711999155732226,-1.1143982833221937,1.33774228726211,-0.96630859375,-0.049072265625,-0.2021484375,1023,1021,570,313,445,0,0,0,0,0,F
-11.512784452558918,0.6416442164381218,-0.1425213341713647,-6.036549759031906,-5.345586941991767,-1.0249410771449674,-0.9453125,-0.081787109375,-0.02587890625,950,1023,1019,1020,1023,1,1,0,0,0,A
-24.33765053148252,28.149298993834947,4.538481348821695,2.293256997455471,1.3781099802092167,2.385920271416455,-0.14892578125,-0.827392578125,0.39208984375,1023,680,1018,800,1023,0,0,0,0,0,P
-0.7085909182985752,13.718544556450087,0.9410166652846624,0.1593555422661579,-1.5373764378935522,0.7817919583494556,-0.869873046875,-0.258544921875,-0.003662109375,1022,508,1022,1015,1023,0,1,0,0,0,D
-0.2055957788472025,2.7800545256409865,0.4518179749351778,1.5723790181385242,1.5370123958260382,0.9016037537642704,-0.85888671875,-0.333251953125,0.138427734375,1021,1021,468,253,502,0,0,0,0,0,F
-72.93390374662826,72.52550490362755,-23.35746747255822,-1.14324409892004,-0.3249375593625778,-0.1688887325430055,-0.90869140625,-0.244384765625,0.01953125,963,1023,868,766,1021,1,0,0,1,0,M
1.308623149926233,3.054554301567974,-0.1023286902862863,8.821458863443596,15.813153802657618,2.352982753746112,-0.884521484375,-0.214111328125,0.01025390625,986,1022,1022,1011,1022,0,1,0,0,1,T
-90.56133623807868,77.56251646781625,-49.06967131273284,-5.754020947985088,0.5515710988815907,0.2459080418959691,-0.928466796875,-0.22119140625,-0.01123046875,1023,1023,1023,1022,493,1,1,0,0,0,Y
-0.3527715326043868,0.054793704679318,-0.4332075711994483,-0.4568843652813122,-1.828774385072096,-0.8761309018942609,-0.795654296875,-0.371826171875,0.253173828125,1019,1021,1022,1022,1023,0,1,0,0,0,X
-4.013504623210163,-3.89699530015212,-0.1225475087377387,0.0778065690874703,-1.3647664402269055,-1.0874711114223683,-0.950927734375,-0.159423828125,-0.0849609375,1022,1021,1021,1022,1019,1,1,0,0,0,S
0.6370379835711573,3.1567593216212058,0.456370063647972,0.2750451853144364,-0.9537142596051243,-0.8363054939138201,-0.8765622766761534,-0.1952544868920013,0.1608214790031455,913,1022,1021,794,532,1,1,0,0,0,I
5.014297516478929,7.853180704974189,2.3640798111440087,4.26934108602451,1.2572390550174612,1.760092833683224,-0.9302085267267964,-0.2554669946949519,-0.0191314454609414,1022,672,1023,1015,1021,0,1,0,0,0,R
-63.98045772826429,77.66679429220268,-32.96344775340057,0.3864589592008914,0.7140261873462654,0.3447200603060309,-0.936384709248374,-0.1607431160978368,-0.0125363755882405,799,698,1022,1021,1022,1,0,0,0,0,U
-95.3762928884426,77.35672326727652,-57.421544169480846,3.651247053857249,3.6611672001969953,0.8338551377211816,-0.811767578125,-0.520263671875,-0.109130859375,886,1023,927,1023,379,1,1,0,0,0,J
-1.4420139773986849,1.196059723590633,-0.0764839176670468,0.2366412213740458,0.7060181075803305,0.365276051837387,-0.7373046875,-0.50146484375,0.237548828125,1023,925,1023,1021,1023,0,1,0,0,0,X
-61.40622740615351,67.30185036922947,-6.960285188074757,1.6735497942097313,-3.607380307454181,-1.9017131600239217,0.005615234375,-0.973388671875,-0.10498046875,868,771,376,827,1023,1,0,0,0,0,H
0.3237634345475066,4.680990836193301,2.190218339665063,-0.784280463669776,-2.211337291489963,1.18921402318349,-0.9521484375,-0.095458984375,-0.3271484375,701,1022,1023,1021,845,1,1,0,0,0,Y
-55.981098604770544,65.90790038511997,1.8338368600084487,-0.0058395187673681,0.7895662574313154,-0.5734688852147611,-0.851806640625,-0.2744140625,0.198486328125,893,553,360,291,651,1,0,0,0,0,B
-37.79499184312415,47.78216128001108,-6.83922419255294,3.627185422309776,4.647834804938967,1.451999859288704,-0.819091796875,-0.4228515625,0.15869140625,1022,1023,1023,876,1023,1,0,0,0,0,C
-59.510355792621645,64.30169143593807,-19.54348023275356,0.4292749850494259,-0.004326872339677,1.0982868399760783,-0.56884765625,-0.5576171875,0.397216796875,1023,1022,1021,913,1022,0,1,0,0,0,X
-4.976189849331711,3.003126766732482,-0.7354863271750229,0.5300195277827098,-1.9045624001420205,-0.6544292561690043,-0.476806640625,-0.8466796875,-0.291015625,1021,891,493,1023,1022,1,0,0,0,0,H
-13.179028401084162,13.062453213782922,-1.5938556395907943,0.5352387715249433,0.6737440085212142,-0.4312799573939291,-0.802978515625,-0.439453125,0.1357421875,959,704,443,1021,1023,0,1,0,0,0,R
-41.83131359413672,47.206292511948014,-20.11141623830146,0.4283290924512304,-1.927692960135708,1.1986146451795303,-0.61474609375,-0.5830078125,-0.6728515625,507,608,652,1022,1023,0,0,0,0,0,K
-101.47417248306547,74.77608214404232,-63.07488047025883,1.8878882752312944,4.287121398670278,1.8185879621486625,-0.839599609375,-0.40771484375,-0.4375,754,815,487,1023,1023,0,0,0,0,0,K
0.0936485762615242,0.899921243944672,-0.7024438309478257,0.2254546733739046,-0.4040524853132586,0.8297393323249024,-0.89453125,-0.318603515625,-0.02880859375,590,454,478,251,639,0,0,0,0,0,REST
-0.9230673162785628,1.5959205718669207,0.2465027222206052,-1.236010925134813,1.065830940542055,0.0513691434974437,-0.819580078125,-0.2822265625,0.278076171875,1015,1021,1023,1021,1022,1,0,0,0,0,E
-6.241466688511333,8.889921319415294,1.2551981374948675,-3.0839342878249543,2.051254089422028,-0.9304182643261694,-0.22607421875,-0.91748046875,0.10107421875,1017,726,411,991,1023,1,0,0,0,0,H
-97.11126873210532,76.17027709867493,-58.949131350382494,-0.921272030112217,0.1955183452351634,0.0704963590952274,-0.80224609375,-0.54150390625,-0.099853515625,883,1022,923,1019,373,1,1,0,0,0,J
-47.73492141859087,48.737024081963504,-24.746309109989124,1.6117775354416584,-3.2036092447321205,0.4408484891124632,-0.238037109375,-0.94384765625,-0.381591796875,460,807,659,1022,1022,1,0,0,0,0,H
1.5747689442147217,4.374865581781711,-5.415258017623676,1.256040338959309,-1.563764969535682,-2.901358638560121,-0.896484375,-0.238037109375,0.091552734375,1019,538,401,434,1021,0,0,0,0,0,W
-2.455006922362441,3.809302732055672,-1.2894358551930931,0.2314237691715105,2.698648364731423,-3.282092583514252,-0.592041015625,-0.559326171875,0.38330078125,1021,550,1021,995,1021,0,1,0,0,0,Z
-72.79326529993706,73.38408147066959,-23.5887271925967,-0.388752885499586,0.1250154289699447,1.3395394714725577,-0.9012088333369288,-0.2391228646834129,0.055444502552329,842,1022,1004,845,1021,1,0,1,0,0,N
-4.342687064924168,3.6407985572043335,4.732670706281973,-2.8658821034775235,1.3146734520780328,4.569020356234103,-0.962158203125,-0.071044921875,-0.08837890625,1021,1023,1023,824,446,1,1,0,0,0,I
-0.7409891297029615,4.139714104279977,-1.9368772191064567,-0.1974624420509606,-0.4122137404580154,-1.7382271950921957,-0.9697265625,-0.030517578125,-0.08447265625,1019,1023,1019,1014,1023,1,0,1,0,0,N
2.8039731700460826,-15.45571415661608,-23.618736424962755,0.9279011135233576,-6.471671685692275,-5.739197422788713,-0.85205078125,-0.27734375,0.198974609375,1023,498,1021,1021,1019,0,1,0,0,0,D
-0.0958244892515885,0.1860206274167552,-0.0057595160295246,-0.2018503535371301,-1.0745066310198057,-0.2132479684806701,-0.924072265625,-0.262451171875,-0.0791015625,727,453,546,384,719,0,0,0,0,0,REST
0.3024124139009726,20.190409544763742,1.4259501250713935,1.0648501554990095,1.5756290641786823,1.6521769861464517,-0.936279296875,-0.220458984375,-0.048583984375,698,1021,1023,998,849,1,1,0,0,0,Y
-0.0600828191439043,0.1485802913771602,0.0344231278056936,-1.214731833077149,-1.375087340419299,1.0413335288632586,-0.9578070594982296,0.0153070104205162,-0.0503100538143116,936,1021,1023,1019,1021,1,0,1,0,0,N
-1.6206182367795776,6.992820971923508,0.0332106240699402,0.9932540387005158,0.1393928634830462,-0.6068524764778985,-0.878173828125,-0.388671875,-0.07958984375,1022,1021,977,1023,1023,1,0,1,0,0,N
-28.476576501426905,74.1961272571207,-16.034989765465788,-1.9998989632139232,0.2481254838615275,2.047364256666828,-0.9528949618968714,-0.169336585178206,-0.2174193451434917,1023,1022,1022,1023,424,1,1,0,0,0,Y
-60.89189161678199,65.25232769285361,-20.81078567539837,6.383473458331869,-1.637914658599219,0.2585921834875286,-0.62744140625,-0.498046875,0.383056640625,1021,1011,1023,892,1023,0,1,0,0,0,X
-0.0840739104202257,0.2666163100344349,0.0088516418044929,-0.526364150409952,0.4581566299123549,0.1252120441051725,-0.887939453125,-0.33349609375,0.02197265625,1023,489,1023,1023,1023,0,1,0,0,0,D
1.7687727056684182,9.105618372499611,3.3745262893999093,-0.8288598867274071,-0.2287613888204879,2.015302353396418,-0.760498046875,-0.448974609375,0.230712890625,1021,861,1021,1022,1021,0,1,0,0,0,X
-80.58741549714398,68.90971190381671,-42.051193858760776,-4.642281594571671,2.6271204410517384,1.0999787955894829,-0.822265625,-0.339599609375,0.19775390625,925,717,921,1023,1023,0,0,0,0,0,V
-4.34033819115926,8.032465059650603,1.4843446859672302,0.9313328877475644,2.2497273718647763,-0.1746930734864744,-0.193359375,-0.88427734375,0.1904296875,710,585,1023,931,1021,0,1,0,0,0,G
-0.2970256890031832,1.7858581731480296,-0.6245040088614003,-1.991736115974508,5.042930177183276,-3.0860354366552283,-0.938232421875,-0.085693359375,0.08154296875,1003,1021,782,592,572,0,0,0,0,0,F
1.161257868769887,2.714704215402818,0.5987976254437475,1.801561895381152,-2.574594575579555,0.1047243817497447,-0.96435546875,0.007568359375,-0.250732421875,1022,1023,1021,1023,1023,1,0,1,0,0,N
-0.4863605182365646,1.2193995149663426,0.1662331678808522,0.7879832553558239,-3.0321525310444293,0.4635030077039432,-0.887939453125,-0.269287109375,0.065185546875,1022,557,452,1009,1021,1,0,0,0,0,U
0.3296017427184084,20.72045414319763,1.3157969570937034,0.6909160791839126,-0.6783180455340104,-0.8037483760046644,-0.9249353921815834,-0.2434862829658816,-0.0523820089268381,695,1023,1022,1002,846,1,1,0,0,0,Y
0.5813070326801411,3.42632949231328,0.2601785396353578,0.1087786259541985,0.063189143341815,-0.6522476675148431,-0.96728515625,-0.056884765625,-0.13671875,1023,1023,1023,1021,1022,0,1,0,0,1,T
-15.177224869575271,59.06090954383563,-1.8727611605367709,1.050749222504948,0.0260814249363866,1.6390655923098676,-0.9677734375,-0.01123046875,-0.101318359375,1023,1021,1022,1023,979,0,1,0,0,1,T
-55.66337961360773,64.59814490860448,2.9640632772580906,5.261336053751716,5.430787631477116,4.075386076617299,-0.83154296875,-0.31103515625,0.22265625,853,614,379,333,831,1,0,0,0,0,B
-2.8611050397058686,9.016561336052494,-0.6528715241819456,0.5215464171386357,0.0130861504907306,-0.3872023076652473,-0.918212890625,-0.279052734375,-0.0947265625,587,515,525,319,654,0,0,0,0,0,REST
-2.8008377390394563,2.0258424552510608,-1.552106579546434,-6.596756604636437,-1.1210820698631587,-3.2254898511978047,-0.976318359375,-0.040771484375,-0.178955078125,867,641,426,1021,1023,0,0,0,0,0,K
-2.4419063568794,6.097821776439803,1.2886626919822508,-2.65761945151258,-0.6056333050607874,4.646204410517387,-0.72998046875,-0.4794921875,0.229248046875,975,535,1023,991,1022,0,1,0,0,1,Z
-12.008473013583822,12.720923955807883,-1.0383337498590346,0.9092845730516608,0.711911947452512,1.2710101189419487,0.36279296875,-0.73388671875,0.451904296875,576,889,1022,1021,1023,0,1,0,0,0,Q
-86.74757719686362,68.21479412850441,-47.567061029616255,-0.3531947978512864,-0.2472080859485437,-1.093723494486853,-0.90869140625,-0.26513671875,0.0009765625,883,822,1023,1021,1022,1,0,0,0,0,U
-58.35571296513552,57.08260401636712,-31.260845377804607,1.8839483589545147,-1.3062581348717768,-0.0556161395856054,-0.93310546875,-0.221923828125,-0.28564453125,533,656,642,1023,1021,0,0,0,0,0,K
-6.44140688185683,3.5295625816533693,-2.939028378665735,0.7725607196162839,1.1708900061310366,-0.4276224138763644,-0.9258423159257296,-0.1773298747810008,0.0590517444429716,1021,887,1022,1022,1023,0,1,0,0,0,R
-13.173400331162613,40.2663608161967,-5.587688184678118,1.457452421993176,3.126182854328632,-0.6674640306750627,-0.299560546875,-0.931640625,0.010986328125,747,903,996,1023,1023,1,0,0,0,0,H
1.0403110686982842,2.059171675204551,2.124531479094438,-3.326504526895084,-4.633197230605361,4.034865968400497,-0.92724609375,-0.223388671875,0.033935546875,590,1021,971,796,793,1,0,0,0,0,C
-1.5753450627898482,1.5936177613584843,0.1662095925469487,0.3846584505208649,-0.9161116998023452,-0.192805214883413,-0.9184033290448717,-0.2115515102413004,0.0410546924899265,721,755,1021,1021,1019,0,1,0,0,0,L
-62.75318216125654,68.42666343304897,-8.401023003507891,-5.410419671439124,2.239947936820628,-0.2528581981918605,-0.909912109375,-0.16455078125,0.078125,1005,1023,933,843,535,1,1,0,0,0,I
-6.038539907328743,17.585843552447482,-1.0090580856565108,-1.7001090512540895,-2.506068174622717,-4.358250958595701,-0.8359375,-0.31884765625,0.024658203125,916,540,355,496,1023,0,0,0,0,0,W
-17.556216924455764,9.234994285955684,10.383644399957,-6.552905004240882,-1.9601357082273108,2.9125318066157826,-0.802490234375,-0.4814453125,0.064453125,1004,1021,1022,803,435,1,1,0,0,0,J
-2.532131090676375,8.829625267485143,2.114553961793251,-2.629490860704532,2.897436795293787,1.8999929967084543,-0.95166015625,-0.161376953125,-0.001953125,1023,1023,1021,1021,1021,1,0,0,0,0,E
-3.0232902726035347,23.560876259645788,-3.227994417029871,1.3534775233248508,0.3075699745547078,-1.2827608142493638,-0.870849609375,-0.257080078125,0.14501953125,890,785,1021,1021,808,0,1,0,0,0,D
-4.043490520390388,27.67640143977189,0.0236465454681726,-2.043469041560645,4.790076335877863,2.405216284987276,-0.94140625,-0.1982421875,-0.091796875,1023,1022,1023,1015,1021,1,0,0,0,0,E
-20.214041673961585,-0.2151434374356794,3.0174284844346864,0.6568436002130307,2.2680987040653293,3.0459080418959696,-0.8671875,-0.422119140625,-0.1669921875,937,432,347,1021,1022,0,0,0,0,0,K
-6.469200615892356,18.1348764796544,1.4590869623444704,-1.5380408222905837,-0.1660053028906543,-0.2446723118307019,-0.9192975588371224,-0.2166913131994416,0.0108608245848232,1023,741,565,1022,1022,0,0,0,0,0,V
-95.41756764526772,73.84669537792293,-49.69801063757222,2.557357930449536,-3.2995122985580987,-1.8076759966072944,-0.33642578125,-0.396728515625,0.691162109375,896,536,1021,1022,995,0,1,0,0,0,Z
1.013827628561942,9.894802276462071,1.089775820544186,0.6526364150409942,0.3771557817359343,0.2704975968334744,-0.875,-0.23974609375,0.15625,1022,331,247,281,1023,0,0,0,0,0,W
-0.4579694927957516,8.830683450953726,0.2902376338121245,0.3807295880676844,2.6839976079079744,0.5222499736166311,-0.8466796875,-0.2734375,0.121337890625,886,1022,1022,931,972,1,0,0,0,0,C
-2.136943563953732,1.5643056652436167,2.1865004003667474,-4.468935538592027,0.6734520780322311,5.637722646310438,-0.967529296875,-0.10205078125,-0.08837890625,1021,1023,1023,813,475,1,1,0,0,0,I
-6.427940584922968,16.58350244514321,-4.416458257107287,1.227459809336194,0.1267456995110283,0.290392936292961,-0.96142578125,-0.0498046875,-0.06982421875,955,1022,1023,412,1022,0,1,0,0,1,T
-6.616246374571097,-2.7473170497934047,2.192284998430802,0.3355977309335392,-4.900903424609567,3.1563835002451155,0.1923828125,-0.402587890625,0.75048828125,608,826,1021,1021,1023,0,1,0,0,0,Q
-4.964120327303255,14.229384899246895,1.615861443844128,-1.9789916597336976,-0.963038848688926,-2.9047509967374934,-0.9297897858909662,-0.1986902530069347,0.0135082056406101,1022,697,550,1021,1022,1,0,0,0,0,U
-9.697136761656344,0.2659253020247354,2.983492509562252,0.9844526927656002,-0.2291476994187268,0.9731773933748866,-0.93408203125,-0.271484375,-0.11572265625,980,871,635,1023,1023,0,1,0,0,0,R
-70.80595646003317,75.45912178634727,-39.8626421647639,0.3268306474413343,0.0352346621430588,-0.3078880407124686,-0.942626953125,-0.141845703125,0.00244140625,843,1021,1023,1023,1023,0,1,0,0,1,T
-6.3311755212686665,14.509313799967462,-0.2671011360771219,-1.6979121934508796,-0.3294118855616998,0.1311356010375774,-0.8741308378068188,-0.2351750519232931,0.16943359375,1021,1022,1022,1023,1022,1,0,0,0,0,E
-59.07059022579384,61.93798515134317,2.867284759166823,1.0857635346677466,0.827734196362613,1.205157068983712,-0.8466796875,-0.333251953125,0.140380859375,544,1023,1023,1015,1023,1,1,0,0,0,A
-59.155763219551325,70.94267083395715,-18.72596792475093,-1.9753051676223297,-2.3860062616526543,-2.1154536180391887,-0.838623046875,-0.33056640625,0.180908203125,977,484,394,1023,1022,0,0,0,0,0,V
-46.99420155934296,61.16734070600848,-33.0102455157262,0.0502544529262089,-1.617719819055697,-0.3213175007068136,-0.964111328125,-0.037841796875,-0.249755859375,1023,576,1022,1023,1023,0,1,0,0,0,R
-4.68058747539787,2.533783929117192,1.6244005230781913,0.9891098816443732,0.8946354786749766,-0.6095314797955047,0.451416015625,-0.416748046875,0.660888671875,586,920,1023,1021,1023,0,1,0,0,0,Q
-74.93897612062658,79.00700243143932,-38.00317677929474,0.5443768248496151,-0.2548633341541496,1.6124810919196548,0.51904296875,-0.253173828125,0.67041015625,772,947,924,945,1023,0,1,0,0,0,Q
-31.359339612160834,41.93850451531711,-0.086979802988753,0.843670063894272,1.024601381883814,-0.1688572690052348,-0.8198297465853501,-0.4535293971188918,0.0683126257469417,1022,1022,1021,1022,1021,0,1,0,0,0,X
-0.8566263682258842,0.1971663813344728,0.1548541321442921,0.8825682317264456,-1.4883404789292085,-0.4862839415803964,-0.27099609375,-0.91796875,0.0361328125,797,857,493,1023,1021,1,0,0,0,0,H
-6.108659681685984,3.70172382369799,-0.2623212004690233,-8.287121398670278,-5.373940268055018,-4.819854363809055,-0.9482421875,-0.165771484375,-0.22021484375,1023,1021,1021,679,169,1,0,1,0,0,N
-70.49242119831958,74.95643519813777,-22.38092896678404,-5.80736623632462,-1.469975727301509,5.663172336159285,-0.7255859375,-0.257080078125,0.428955078125,926,1023,1023,772,981,1,0,0,0,0,O
-92.8492259713726,81.79441659597931,-60.92803117012907,5.452773771414501,0.2565870475252397,0.7117177331410289,-0.9140625,-0.2587890625,-0.012451171875,640,1023,1022,918,516,1,1,0,0,0,Y
-13.645614214494334,1.0623703435898844,0.2942980543284507,-3.0747176979632043,-5.177648010694058,-0.2921166496640516,-0.942626953125,-0.090087890625,0.01953125,1020,1019,1021,1020,1020,0,1,0,0,1,T
-1.4470919370836668,3.686505830048569,-1.9875995139445355,23.59643068772003,0.8549618320610686,6.757956011014675,-0.957275390625,-0.041259765625,-0.080078125,1015,1022,1022,1021,1022,1,0,1,0,0,N
-4.086238316426168,14.016338022822485,-0.0343547683518616,0.5748352538119312,3.557058467676552,1.3352039220633207,-0.8898039170248206,-0.3013636530190637,0.0678151966631275,688,566,507,299,587,0,0,0,0,0,REST
-72.36067764341016,73.90082604367224,-23.561364836701824,3.330038343828052,0.026207478805361,0.7013402750905822,-0.9130859375,-0.1669921875,0.05322265625,840,1022,1004,846,1023,1,0,1,0,0,N
-113.10322129851438,73.6591627525915,-74.30793555349572,-1.7991346255320642,5.783304604777148,-2.4943891370879783,-0.865478515625,-0.282958984375,0.1044921875,715,764,1023,1021,1023,0,1,0,0,0,L
-1.909082428782109,1.036402759048122,-0.2597990822245383,1.3391798331262212,0.4465826380259186,0.7425173087164919,-0.461181640625,-0.865966796875,-0.23779296875,694,849,1021,1023,1023,0,1,0,0,0,G
-9.687547458820228,4.2653666390928455,3.680127075583197,0.171773314102789,2.823442501846836,1.3230731346958875,-0.885986328125,-0.291259765625,0.074462890625,1011,657,449,1022,1023,0,1,0,0,0,R
0.0700644061321205,-0.8877487147852449,0.21599151661116,2.6088493073225885,3.5398642917726884,0.0428329092451231,0.261474609375,-0.18896484375,0.799072265625,1019,580,846,657,841,0,0,0,0,0,P
-77.44205202992038,78.53087318586267,-39.185677362733145,-0.3991023466214313,-0.4760390161153519,0.3670836867401753,-0.703369140625,-0.398193359375,0.343994140625,1023,737,1022,1021,1012,0,1,0,0,0,X
2.243052859111308,8.1742226319613,-9.8621793401959,2.4621472091883168,-1.3271237481616365,-3.3593739057356933,-0.664794921875,-0.251708984375,0.49658203125,1022,801,1023,853,1022,0,1,0,0,0,X
-2.779217801389241,1.1270338564495683,0.347055999868724,0.3956085405507864,-0.4736319422199018,0.6706968087579995,-0.3169925414294315,-0.8905744755114474,-0.4532485897113368,791,1022,429,1022,1022,1,0,0,0,0,H
-9.107143078310362,32.4557539395978,1.474379215096352,1.4202007350862311,2.1146451795306755,1.6137616624257831,-0.94921875,-0.1748046875,-0.072021484375,927,1023,1023,1023,1021,0,1,0,0,1,T
-14.32114775169085,51.84942624415456,-5.731129299082428,-3.895815662991235,-0.0655216284987278,5.845172462538876,-0.946044921875,-0.00390625,-0.09716796875,1023,1022,1023,1022,943,1,0,0,1,0,M
-0.1073861337535458,0.7750842342422626,-0.1858027863382519,0.6977454287235931,-1.4428546067814665,-1.2856382034439908,-0.90869140625,-0.313232421875,-0.030517578125,989,455,1023,1021,1022,0,1,0,0,0,D
-29.679106668481605,46.73633238017832,-15.319718955722706,0.2706743002544524,1.822201017811705,-1.6970596550749222,-0.892822265625,-0.16796875,-0.282470703125,756,804,959,1023,1023,0,0,0,0,0,K
-5.482011261628932,10.916109389865785,-3.956605389144056,-1.8386791792142303,-0.0220953848308705,-0.9336438125919176,-0.196533203125,-0.96484375,-0.255126953125,846,836,588,1015,1022,1,0,0,0,0,H
-5.384958525479318,14.19808731671414,-0.4617044073007067,-0.1605867661026491,-0.2249621838393076,0.0079501882013581,-0.825927734375,-0.38232421875,0.160888671875,555,966,842,796,357,1,0,0,0,0,C
-80.1866153906052,77.9765962117075,-41.25078385254615,-3.71585300905379,5.284395526362506,0.1237706373158165,-0.907958984375,-0.214111328125,-0.017333984375,1023,1023,1023,1021,497,1,1,0,0,0,Y
-64.71321932522282,70.61726674603604,-14.471795110151598,1.6888169697822502,-1.6989833608892957,0.5639356949379104,-0.872314453125,-0.376708984375,-0.109619140625,998,814,372,884,1023,0,0,0,0,0,K
-0.0432087061717977,2.874311855238453,-0.7117450432932931,0.6187427445738204,-0.0552643613466079,0.3918457804200229,-0.925537109375,-0.09814453125,0.051025390625,1021,1023,1023,1022,1022,1,0,0,0,0,O
-20.52582423936485,-1.1101519523187815,3.117896397979284,22.46600390555654,1.0009231315462457,7.900869873957038,-0.890625,-0.41552734375,-0.1728515625,924,454,329,1022,1022,0,0,0,0,0,K
-0.1740672397462954,0.3481308852235762,0.0880350968260998,0.0714109825166214,-1.10187497801386,0.5699862806486793,-0.85986328125,-0.34228515625,0.092041015625,1022,650,1021,1023,1019,0,1,0,0,0,X
-52.81270473426176,86.05142604045497,-16.009729840429596,-0.2571498927076368,-1.2930312730854472,-1.4409540225841615,-0.91796875,-0.01171875,0.158935546875,688,1022,1022,1021,1022,0,1,0,0,1,T
-0.3675924243460034,2.084574975869072,0.1300213969044382,2.3110599881487683,-0.4568998570880826,1.0710725365122522,-0.8916015625,-0.22412109375,0.1357421875,1023,445,481,561,1021,0,0,0,0,0,W
2.2728933330338736,7.26306988008772,-8.75782268195055,2.492681560333355,-1.670635198543316,-3.061663982071571,-0.684326171875,-0.2568359375,0.5263671875,1023,1023,1022,862,1023,0,1,0,0,0,X
-93.2440523817549,79.96898677735456,-55.24767222420995,0.7352165195061037,1.0504801772962322,0.543778801843319,-0.37158203125,-0.908203125,-0.0634765625,678,802,1023,1023,1023,0,1,0,0,0,G
-8.86313286337559,31.65241313000022,-7.19428164804914,0.4564674429239804,0.8748373025644633,-0.5798360713406268,-0.899658203125,-0.233154296875,0.07421875,1023,478,445,1021,1023,0,0,0,0,0,V
-56.59218977060088,60.456767023551095,6.734104144567559,4.477737536991015,-1.98767862581644,0.8056878354981714,-0.5969702749310273,-0.6613643619300263,-0.5554944421446767,689,1022,1015,1019,528,1,1,0,0,0,Y
-0.5936252172134899,2.3030997804112814,-0.3333568376863234,0.5795194709255291,-5.708833151581243,-3.657508706511415,-0.947021484375,-0.182861328125,-0.0263671875,925,1023,485,252,611,0,0,0,0,0,F
-0.3493740495474342,1.5024259787858338,0.0187983653546322,0.9684054283290924,0.7932569974554707,0.1828527000282727,-0.95068359375,-0.121826171875,-0.1875,837,1023,1023,1023,1022,1,1,0,0,0,A
0.0475380375741882,1.556764347885167,2.050914984116414,1.4158354831015971,-1.532613029048852,1.1868646005558083,-0.9465928981304356,-0.0317262423205436,-0.1006504934668476,1022,1020,969,1011,1023,1,0,0,1,0,M
-7.416247157476376,28.32516170727866,1.91603142620402,-0.1446847610969749,-0.5418433700876452,0.4305555555555542,-0.80615234375,-0.440673828125,0.1298828125,1017,466,1020,1023,1023,0,1,0,0,0,D
-3.8995891437159913,17.590769832841993,3.160441281061684,-0.9882694866587304,2.3630856502556195,1.838924294418378,-0.95166015625,-0.049072265625,0.007568359375,1023,1021,516,346,453,0,0,0,0,0,F
-24.66659459416777,26.995422314778565,4.090910987744629,9.232188295165397,8.942995476392424,8.11111111111111,-0.93017578125,-0.169677734375,0.19580078125,1023,934,408,1023,1023,0,1,0,0,0,R
-75.2908013017455,63.47142897566205,-43.73049061420925,-0.9495550005276672,0.9190910050304286,0.7569564146761879,0.6484375,-0.249267578125,0.58154296875,937,743,1021,1022,1021,0,1,0,0,0,Q
-4.672721630813059,22.36297872484756,4.220559225922987,-3.079872540093845,8.469955879263253,2.0450311646473858,-0.9462890625,-0.049072265625,0.011962890625,995,1023,526,345,444,0,0,0,0,0,F
-9.857773207462715,6.817370114700073,3.5238360693430204,2.4424679599411725,-1.313117165067582,0.316688843756566,-0.95849609375,-0.1103515625,-0.039306640625,1015,1022,1023,1022,231,0,1,0,0,1,T
1.844520940183361,4.956998816867979,0.6665435360722246,-2.6747321490834888,-4.087282598574319,-1.6127429484712854,-0.9397767948268054,-0.1758690326094765,-0.0492633867821297,1023,1022,1022,947,1021,1,0,0,1,0,M
-35.5926635172757,44.04668758809469,-5.451738136468821,-2.3270130509726665,-2.3063636683434763,0.7573433707390858,-0.8330078125,-0.2412109375,0.215087890625,515,1023,1023,1023,1022,1,1,0,0,0,A
-10.89382501388446,87.09115592231599,23.34965589693852,22.529109649277096,13.08101452844127,-1.6088929538818717,-0.94775390625,0.12353515625,0.074462890625,868,930,396,1021,1021,1,0,0,0,0,U
-17.6158635527868,17.096481626276727,6.494534483322384,-0.7907124681933843,1.3246748657054,2.828668363019508,-0.710693359375,-0.494873046875,-0.64501953125,1022,1023,1023,1023,608,1,1,0,0,0,J
-12.226353182430357,16.930992705617022,4.348097738689825,6.2134603263533865,1.175432453253029,-0.4924714615869454,-0.87548828125,-0.283447265625,0.064208984375,854,696,481,1021,1021,0,0,0,0,0,V
-6.276479385648817,9.41962893122938,0.914682114841704,-3.04521946686413,2.954774526533398,-1.2283964025129297,-0.4017515317609766,-0.868215989772584,0.058370462727889,928,873,509,1022,1021,1,0,0,0,0,H
-0.2366524492576299,3.1370548875011086,-0.3774285160008035,2.907763745734689,0.5888767720828791,0.5027966370000357,-0.936767578125,-0.18896484375,0.0087890625,916,1023,491,233,614,0,0,0,0,0,F
-20.525773083073982,24.738305746821776,5.852050305175338,-0.3097964376590331,0.0727664687588349,0.2179813401187449,-0.9013671875,-0.160400390625,0.117431640625,1023,1023,1021,1023,1023,1,0,1,0,0,N
-4.437806151484814,2.5782597465311152,-0.2143332483117309,-0.8262737440085214,0.4182851056275509,0.3848748446653645,-0.3974609375,-0.6435546875,0.43505859375,817,288,377,464,146,1,0,0,0,0,B
-0.5923590166465067,1.8244956379697503,0.7704141592984025,-0.9828683997607908,-2.870123474161889,-0.8326239138846876,-0.92919921875,-0.255615234375,-0.106689453125,648,1023,1019,1023,697,1,1,0,0,0,Y
-6.122212931726247,21.58586291443136,3.766736653586583,2.1716326028071906,0.6798466246877967,0.6892391036690462,-0.8447265625,-0.354736328125,0.099853515625,1021,1019,689,306,378,0,0,0,0,0,F
-6.626393274700519,3.856092972643877,-1.1930866296805576,0.1025386117521753,0.7366589739037812,0.2997692171134384,-0.46728515625,-0.858642578125,-0.28857421875,1023,852,401,1023,1022,1,0,0,0,0,H
-49.10207995671836,66.05999551363998,-33.71916310124249,-1.885354820469324,-1.111323155216285,-0.6757138818207518,-0.92919921875,-0.24072265625,-0.08935546875,760,1022,1023,1022,941,1,0,0,0,0,O
-7.524354278548988,26.79028281671353,-5.978420261827081,1.8381468322369576,1.3099518063812572,-0.1141872163787947,-0.892333984375,-0.233642578125,0.139892578125,1023,622,346,1023,1021,1,0,0,0,0,U
-9.901521492599834,25.765256227842528,-1.5766337621163484,-0.1331283573649987,-0.1210418433700876,-0.2116200169635287,-0.94775390625,-0.093505859375,0.0537109375,1021,1022,1019,999,1022,1,0,0,1,0,M
1.3865002958607775,7.323735587332561,-0.3159802552797709,2.2186077456404507,2.170390083339169,0.15764409272358,-0.952392578125,-0.1083984375,-0.0810546875,1020,747,497,537,760,1,0,0,0,0,B
3.580384599403047,16.23408223185996,-5.523049355931277,-0.0529485605534881,1.2607172087685616,2.876491893356084,-0.6940621170390235,-0.3020521216374376,0.4676588924643656,934,963,871,557,715,1,0,0,0,0,C
-2.919065192886947,22.988066301997826,-2.848983480568495,-1.0129346904156071,2.254134860050891,1.6714376590330788,-0.8798828125,-0.26123046875,0.1484375,896,779,1022,1023,811,0,1,0,0,1,D
-5.060665342025267,16.270344540082526,-0.2020375381680929,1.4217110307220275,-0.5569179494074769,-0.199210086567499,-0.8340085881425408,-0.3685211806656185,0.1449347852511074,1008,420,445,1022,1022,0,0,0,0,0,V
-1.475359824578364,1.382206091888,0.1572660466066597,-2.730454181045,-3.5475269266966425,0.2926905782704168,-0.91552734375,-0.20068359375,0.036376953125,711,754,1021,1023,1023,0,1,0,0,0,L
-51.70836594279665,66.0799576923707,-35.6203784824169,0.4498491034972484,0.9764956506302148,-0.7287058405822832,0.476318359375,-0.28271484375,0.67822265625,520,691,997,1022,968,0,0,0,0,0,P
-1.2405043765201131,5.553651827707477,0.1255771312725543,-0.2319139995798027,-1.6934309125288889,0.627529939071364,-0.88427734375,-0.18994140625,0.168212890625,1023,1023,1023,806,906,0,0,0,0,0,C
-0.8990146498821476,-4.750617294812841,-0.3503305815487283,-0.4595630914271642,0.5407886868118338,-0.949414289232068,0.65380859375,-0.187255859375,0.597412109375,684,366,947,837,1023,0,0,0,0,0,P
-134.8475182678168,73.43296369130667,-113.36895256606282,15.025480633305058,8.771840542832907,6.15860899067006,-0.719970703125,-0.64111328125,-0.065185546875,730,709,1023,1021,1023,0,1,0,0,0,Z
-3.119089065298669,10.49148508699959,-0.6137037979479915,-0.0831251978752593,-1.996622928905618,-1.093502655925704,-0.81884765625,-0.312744140625,0.22265625,1023,1021,1023,1022,1023,1,0,0,0,0,E
-3.9665507120121952,14.31511843254033,0.1396043864303451,3.0271377547447296,1.7321591147839484,6.3818544716016525,-0.90283203125,-0.29052734375,0.064453125,863,564,509,316,614,0,0,0,0,0,REST
-6.67573464385145,21.13567833243461,-5.065956853490443,0.8076124810919194,0.0962113483659901,-0.4118971400429168,-0.948486328125,-0.126220703125,-0.021728515625,878,1022,1023,695,1023,0,1,0,0,1,T
-4.755743005619444,17.299391037314322,2.089569498064189,-0.8317076618603337,0.1909810573932709,-1.0121925360474997,-0.88720703125,-0.303955078125,0.063232421875,660,507,1023,1023,1023,0,1,0,0,0,L
-2.221400667790697,4.218557612747934,0.1842235206359549,0.1268430408867509,0.2826518874830056,-2.402314475931542,-0.9599609375,-0.064697265625,-0.080810546875,1021,1016,1022,1019,423,1,1,0,0,0,I
-0.436463433188577,0.8626831930658405,0.1908379793036634,-0.3789706968726914,-0.8652337566398146,-0.025433566679565,-0.84619140625,-0.35498046875,0.10595703125,1022,644,1023,1023,1023,0,1,0,0,0,X
-79.04578432644139,82.74302961661054,-40.8428433803526,0.96422415309389,-0.1098251662152182,0.6277482674921739,-0.9443359375,-0.126220703125,-0.0029296875,658,1023,458,623,593,0,0,0,0,0,F
-63.20351629609527,69.70981462508898,-35.30854217669504,-18.805536530041884,3.677224922613489,-8.59630883129612,-0.9119732534944136,-0.2457754497914336,0.0269123568845438,1021,931,1023,1023,1021,1,0,0,0,0,U
-84.43028095998218,77.85115124634387,-44.75256273454961,-5.39524232203089,2.429433694301438,0.848961477010473,-0.92578125,-0.217041015625,-0.021728515625,1023,1022,1021,1022,499,1,1,0,0,0,Y
-93.51752656631872,80.54216655120125,-56.598122390809614,0.5901783515671724,0.1191824673725679,1.475076511766983,-0.9541015625,-0.029296875,-0.06884765625,942,927,384,951,1023,0,1,0,0,0,R
-2.08347964326206,4.939852252727614,0.7847639720538573,-1.2125148819945373,0.2019399117585263,0.1791441977729539,-0.89306640625,-0.295166015625,0.112060546875,1021,1023,1021,676,1023,1,0,0,1,0,M
-9.570040338799382,13.41545035276624,5.037354242795292,0.7977275125760714,0.472297463678897,0.964294508741689,-0.939208984375,-0.165771484375,-0.0126953125,1022,1022,1023,889,1023,1,1,0,0,0,S
-2.2931226911363507,-3.2761099414238206,0.2260980134275476,0.2610126759576991,-1.7617130051124017,-0.7515932488269488,0.3125,-0.369873046875,0.743896484375,552,762,1022,1021,1023,0,1,0,0,0,Q
-55.36760664930713,63.27609780557079,6.894783278525996,0.1233686284166462,-0.1155239736869876,1.085587645548246,-0.7578125,-0.23046875,0.38037109375,983,746,426,1023,1021,0,0,0,0,0,V
-3.0442044138459186,15.866526047359228,-0.7077791535813263,-0.5694301437954908,-0.6794958281555122,-0.4612107225279604,-0.91357421875,-0.167724609375,0.080322265625,1023,1023,1022,927,909,1,1,0,0,0,E
-37.99540491012573,48.03545397886273,-6.860580438581583,-5.380448165476484,0.0218806064656841,0.7344426073803071,-0.82958984375,-0.372314453125,0.183349609375,1021,1023,1023,879,1023,1,0,0,0,0,C
0.1661369232576068,1.549175562927423,0.134756935853998,-1.8548211207654697,-0.8782495514827463,1.16790375347381,-0.957763671875,-0.018310546875,-0.2607421875,1023,1023,1022,1000,420,1,1,0,0,0,I
-3.5743587051966768,9.78769802688921,1.5367691158442165,-0.484152390333134,0.0969852604917858,0.6009427656805151,-0.935791015625,-0.200927734375,-0.03076171875,1023,1023,1023,1021,1023,0,1,0,0,1,T
-11.36235213551621,31.68817534155741,-2.0851071041389484,0.4598093361944626,-0.4449642945087418,0.0151616421008201,-0.929931640625,-0.14404296875,-0.080078125,741,1023,1023,1023,484,0,0,0,0,0,F
-0.1920126556578061,0.4201351287884121,-0.3270170419608078,2.2207408449713304,-0.3729552889858231,-0.367432370633552,-0.919921875,-0.13232421875,-0.007080078125,951,1021,544,247,715,0,0,0,0,0,F
-0.0528251018357859,-0.4245872910770468,-0.2334498232609659,3.373135373625604,-5.89943273338469,-6.377407381469288,-0.96337890625,-0.24853515625,-0.108154296875,832,721,572,1023,1019,0,0,0,0,0,K
-5.446190551143975,17.119186343702903,-0.3783419756136043,-0.4634678298800436,-0.0098849685158472,-0.1445105005804343,-0.840087890625,-0.38037109375,0.15673828125,1007,417,438,1023,1023,0,0,0,0,0,V
0.3897424467922678,9.24442061786003,-5.478276651198965,1.1613161839032378,1.9923664122137403,-1.7687615462372337,-0.924560546875,-0.220947265625,-0.031005859375,1023,1023,1023,935,1023,1,0,0,0,0,O
-3.103197780070606,7.615867040880666,-1.1587304935823084,-2.9512425234645328,1.4702646230839964,-1.3039084814371706,-0.8693661191592071,-0.3752902309811413,-0.0277681958137929,844,654,464,889,1022,0,0,0,0,0,K
-94.66114783613985,78.12014836638282,-62.57932578586362,-0.9514546030182572,0.5578851092271432,-0.1249164526682375,-0.939208984375,-0.237548828125,-0.109375,891,597,1023,1023,1022,0,0,0,0,0,W
-16.273765564869752,61.06241577626479,-2.3833344988383884,-0.2851286400904719,-1.5235368956743005,0.4253251342946005,-0.9375,-0.155029296875,-0.360107421875,1023,996,1023,1022,1023,1,0,0,0,0,U
-0.9252616333858528,2.970000220124389,-0.2089348900526102,-0.0433390790445704,-0.2693565976008724,-0.5169733000316596,-0.91796875,-0.27978515625,-0.085693359375,588,512,516,301,641,0,0,0,0,0,REST
-91.83051081433052,75.17566221461223,-56.93949842823435,-4.37165370950153,-0.6670770746121649,3.681183381995991,-0.916748046875,-0.10107421875,0.148193359375,1023,1022,953,920,1021,1,0,0,1,0,M
-2.6316821894315323,16.134912253424552,-1.758482816292342,-0.6338692088507405,-3.5452562704471107,2.757413726386885,-0.909912109375,-0.236328125,0.054443359375,1021,428,392,292,1023,0,0,0,0,0,W
-47.85738156201485,69.74144047228305,-25.59975590831152,-0.5485886738860287,-0.2696254216225811,-0.4913900230782885,-0.933837890625,-0.180419921875,-0.01171875,922,1023,1023,1021,978,0,1,0,0,1,T
-55.533461450542006,55.44222866115394,-29.40384897905739,-1.48660588068985,-1.6675855244557534,-1.9163486005089057,-0.9228515625,-0.26220703125,-0.26611328125,515,653,818,1022,1022,0,0,0,0,0,K
-9.203547347218093,19.34469384654156,5.874914610451221,-0.1106694339888141,0.4341295247475993,0.513912829352376,-0.936279296875,-0.117919921875,-0.018798828125,773,1022,1023,940,1021,0,1,0,0,1,T
-61.210138169726136,52.49827418036378,-1.5236741915810872,0.5890174833784783,1.273789003412249,-0.0289161712456471,-0.79638671875,-0.338134765625,0.23193359375,692,889,271,1021,1023,0,0,0,0,0,K
0.9143649974521686,6.166187994484995,-0.3331727733170492,-0.3157433993977174,2.3459626024231386,-1.2469360599481756,-0.9443359375,-0.156982421875,-0.129150390625,748,1023,1019,1023,1022,1,1,0,0,0,A
-93.25074846108002,78.39725297489801,-55.41309550485458,-1.0914345968227188,-0.7063770538623017,0.7905119139163502,-0.8252206576361204,-0.5052883346779257,-0.1150142859748752,885,1021,930,1022,378,1,1,0,0,0,J
-1.6827368689772286,5.757621503508684,0.6187466494822425,-0.0836160588068986,2.641362736782584,0.4458227311280731,-0.85986328125,-0.349365234375,0.0625,1023,457,1023,1023,1023,0,1,0,0,0,D
-1.4312330723871238,7.208412156014663,0.0906507975161114,-3.646517812779008,-2.197110272497925,0.7794185221580423,-0.8915441972399935,-0.2181749382817001,0.195753700105227,1022,1022,1021,824,967,0,0,0,0,0,C
-10.129818093669554,5.892980446792677,1.3268077700581693,-0.8248847926267281,3.41882717135118,1.782038203116755,-0.29052734375,-0.93115234375,-0.102294921875,1008,875,481,1022,1021,1,0,0,0,0,H
-0.0650707011735515,0.1098696326542128,-0.099097800788846,-3.0600578618982888,-2.3587786259541987,-1.5092195615044095,-0.950439453125,-0.128173828125,-0.12548828125,955,1023,1022,1022,1022,1,0,0,1,0,M
-2.469361575815475,20.422015882426187,-2.094532397713987,1.654074205574294,-0.2254571276406892,1.5668027693946387,-0.8798828125,-0.328125,0.059814453125,881,594,1023,1021,929,0,1,0,0,0,D
-2.4095376338520924,13.336185357644084,-2.164672722912003,1.0423381396663838,-1.7006644048628785,-0.1972363584959005,-0.93896484375,-0.109130859375,0.03564453125,1022,1023,337,634,410,0,0,0,0,0,F
-4.31172967857811,8.003508306450149,1.4930316598609477,2.35118021599184,3.2268266085059976,-1.2357617757765509,-0.173828125,-0.88818359375,0.2119140625,718,587,1023,933,1019,0,1,0,0,0,G
-0.4700995432456619,5.809349732213813,-0.2807966764930801,1.7245605434554234,-2.5377827578962115,0.0101547727431896,-0.88671875,-0.361572265625,-0.038330078125,659,633,372,1008,1023,0,0,0,0,0,K
-0.3662466066008093,0.9005423737203719,-0.4447807488865561,2.039715763182889,-0.6624687796812891,-0.8344883385513775,-0.937744140625,-0.1669921875,-0.068115234375,1021,733,495,420,391,0,0,0,0,0,B
-30.04035680804385,41.42294917079406,0.6757048451900802,2.789440203562341,2.103300819903873,-0.0110262934690412,-0.8212890625,-0.44775390625,0.06787109375,1021,1021,1021,1023,1023,0,1,0,0,0,X
-0.9195472263196296,3.014866978057526,-0.1827114578959854,1.5291800049248954,0.8298800436205016,2.689133570197348,-0.92626953125,-0.280517578125,-0.059326171875,589,517,524,305,635,0,0,0,0,0,REST
-28.06892693106165,37.82374963627406,1.8833535221029003,-0.1210833505304984,0.5680872474378904,0.9471275041622964,-0.8422877593640564,-0.2189066864838682,0.2751883007467302,1021,714,465,1021,1021,0,0,0,0,0,V
-83.42225161345218,79.88525862939254,-46.6085059049435,-0.4785239385091635,0.1344496429450871,-2.257747915713933,-0.783447265625,-0.321533203125,0.302001953125,899,1022,840,895,1021,1,0,0,0,0,O
-112.34914860248684,73.59826764854583,-73.50302249708209,-2.7508796210942923,2.45339670993796,-2.744223485294733,-0.8626097794226906,-0.3093972307686961,0.1359792542934251,703,761,1022,1023,1022,0,1,0,0,0,L
-7.460404698926201,4.249858368007215,0.983522029261606,-2.3287015865198577,-2.2376613782671404,3.1942519435747703,-0.3681640625,-0.912109375,-0.206298828125,1021,926,515,1011,1023,1,0,0,0,0,H
-62.7843817422692,60.12665902063702,-2.693582360890421,4.047032750554051,0.739437858374081,2.86421359974672,-0.799560546875,-0.55615234375,0.0087890625,1023,1022,1022,886,1022,1,0,0,0,0,O
-7.204816134660202,10.01800278758664,-2.1838289394659074,-4.711325367613415,-19.479722408242203,-3.7385729642150487,-0.0709612768516418,-0.4739189022542001,0.7477898204306852,1023,580,1021,956,1022,0,1,0,0,0,Z
-75.06022354810673,63.3711394775458,-43.49470269926348,0.829070953670806,-0.737397544587892,-0.8079290815070183,0.633544921875,-0.26171875,0.56591796875,939,741,1023,1023,1023,0,1,0,0,0,Q
0.2719707663585858,0.5185369484364709,0.0273981212820019,4.0288185447160165,4.7351004972337,-0.1123327964143146,-0.969970703125,-0.049560546875,-0.1240234375,647,522,1023,1022,1022,0,1,0,0,0,L
-2.4990585644239,1.0065189707856077,0.3301034774718827,-0.5606092733955331,0.9552940344925078,0.8952502120441049,-0.313720703125,-0.88916015625,-0.434326171875,792,1022,425,1022,1022,1,0,0,0,0,H
-64.91558460816084,66.55474493658517,-26.90120272589163,-2.1508776867063,2.926970837583987,-3.367362014985753,-0.561767578125,-0.44677734375,0.53466796875,982,476,1023,1021,1022,0,1,0,0,0,Z
-54.05448140681459,63.08120762906145,8.142674738700837,0.5584831322334401,1.7852393850916384,2.1084884089070246,-0.69873046875,-0.28662109375,0.4580078125,1022,705,325,309,1022,0,0,0,0,0,W
-0.2845742081661028,-5.108631884850476,-8.085724047190682,0.950801876882136,-8.517473212409833,-6.357518033475737,-0.9677734375,-0.103271484375,-0.118408203125,1023,765,532,493,443,1,0,0,0,0,B
-0.6412283105741862,11.264298523661951,0.5511017304329738,2.235691420128753,-0.4534069722446974,1.110036233158616,-0.92041015625,-0.262939453125,0.009521484375,1022,680,1023,1023,1021,0,1,0,0,0,D
0.26323345205641,14.905522452205506,1.0211861870842205,0.8434761096974828,0.048911506926774,0.392635001413627,-0.6748046875,-0.396240234375,0.420654296875,1023,787,1023,1023,1020,0,1,0,0,0,X
-0.1609682643824433,0.6920241096021916,0.0778008407865027,2.1983332166118066,0.1706001820855803,1.054275509489461,-0.8515625,-0.339599609375,0.131591796875,1023,1021,475,252,525,0,0,0,0,0,F
-109.47714883466796,86.33205807119688,-77.91959617595606,5.29246842790305,-1.3464663875892642,0.994160481232632,-0.932373046875,-0.120361328125,0.07763671875,908,580,341,380,1022,0,0,0,0,0,W
-13.866227654759236,33.88761792538565,-2.101265319701296,3.525447036558797,1.1306373643074157,0.2901940130198719,-0.946536679545956,-0.1454152550007355,-0.0539967216466908,1022,1023,1021,1023,343,1,1,0,0,0,I
-1.3848172275980453,2.1978324580948483,0.1076405444885868,-1.748301701799846,-2.1677288325513,0.80909027242804,-0.935791015625,-0.235107421875,-0.250244140625,888,1021,1023,1023,1022,1,1,0,0,0,A
-1.508773266318277,2.4628668706985697,0.6013874823536658,-2.9574550038518104,1.306849219132992,1.2072624133342664,-0.17822265625,-0.435546875,0.7255859375,741,651,832,940,1021,0,0,0,0,0,P
-6.864768557735993,3.990450700064597,-1.26387214662631,1.066245967293976,-0.2423619835335185,-0.2662177214048824,-0.4540126015863895,-0.8477631955168886,-0.2871983359136104,1021,853,401,1023,1022,1,0,0,0,0,H
-11.081789164655955,13.948027257812877,4.025560029322992,0.1981931507808674,-0.610827088731704,0.9273758666573294,-0.9296875,-0.2099609375,-0.044189453125,889,683,506,1023,1023,1,0,0,0,0,U
-8.705498737318932,-2.9838192135603814,2.029687461064829,-4.255707601927745,-9.61167200196996,-12.40211770499877,0.209228515625,-0.21435546875,0.81494140625,692,690,1021,1021,1021,0,1,0,0,0,Q
-1.9248048956338928,2.866083382184977,-0.1343197065160599,-1.9260074560624885,0.4399786969643176,0.2225812178235403,-0.867919921875,-0.4306640625,-0.139404296875,601,1021,1023,1022,1023,1,1,0,0,0,A
-3.592489169819956,2.170627777567128,-0.3727045028095763,-5.783304604777149,-2.9235585886657054,-1.23206810426707,-0.963623046875,-0.070556640625,-0.124755859375,1022,1022,1023,880,1022,1,0,1,0,0,N
-0.5471635819913814,0.4259823299976082,-0.0819863023827705,-0.83206106870229,-1.469554411503639,-0.5736552458725367,-0.734619140625,-0.4892578125,0.24560546875,1023,875,1023,1023,1022,0,1,0,0,0,X
-2.5738712388371328,6.431010583521533,-0.9228133535211585,-0.1949906778766668,6.583635276321806,-1.2895134906954655,-0.86962890625,-0.37109375,-0.009033203125,844,651,475,893,1023,0,0,0,0,0,K
-57.13270198982155,63.5143223775491,5.257892507260865,6.428712139867028,9.273789003412247,0.4214655081436659,-0.74951171875,-0.26953125,0.489990234375,972,732,492,1022,1022,0,0,0,0,0,V
-2.602979268002039,16.1559059463421,-1.6686884460592886,2.144756745347733,-0.8964013086150495,3.8032152531044425,-0.9072265625,-0.225341796875,0.0595703125,1021,431,393,292,1023,0,0,0,0,0,W
-57.53167715396723,67.96433672663471,-17.26722411767723,5.803320786576143,4.911703662011468,3.1440883666936355,-0.823974609375,-0.338134765625,0.236328125,984,523,373,296,1023,0,0,0,0,0,W
0.9776381922933046,11.674932132211422,1.1589390168270075,2.1488196211478643,-0.935821317500707,0.3697342380548484,-0.727783203125,-0.384033203125,0.363037109375,1023,1023,1023,1022,1021,0,1,0,0,0,X
-0.1733535788933262,1.2833856689822891,-0.1167150163687545,6.3530534351145045,1.131891433418151,2.2179813401187447,-0.974853515625,-0.029052734375,-0.238525390625,1022,1023,1023,1022,1021,0,1,0,0,1,T
-9.957754711377143,26.438842541513125,-1.4949325369909576,-0.2912777387072895,0.4005072347758773,1.008658503714578,-0.9374174900356036,-0.0865715877713622,0.0576587230326239,1023,1021,1023,987,1022,1,0,0,1,0,M
-15.032817022322046,62.9182777442618,-3.014184427539893,0.34845914616907,-1.0731552162849871,0.1810503251342952,-0.94384765625,-0.22412109375,-0.2001953125,1023,709,1023,1022,1022,0,0,0,0,0,V
-12.98942881144026,40.97177856004895,-4.220447228091909,-0.0790217698614642,2.2092875318066154,-0.6128428046366972,-0.936767578125,-0.177734375,-0.200927734375,701,801,1022,1023,999,0,0,0,0,0,K
-0.04272358056037,0.1961833084331921,-0.035669854273487,-5.741794772575368,-5.777570619481479,-4.095718858831392,-0.962890625,-0.013916015625,-0.335693359375,952,383,83,1023,1023,0,0,0,0,0,K
-10.606823298672031,10.141749081137,0.4112260939760458,2.5191191472895493,-4.727371864776446,-0.1594258979139553,-0.207763671875,-0.9453125,0.034912109375,608,715,422,979,1023,1,0,0,0,0,H
-3.7144208163636265,11.337390234961624,-0.0234935457213568,-0.6140836193010717,3.411548427761048,-1.57234400168079,-0.919677734375,-0.271484375,0.02490234375,639,635,605,334,596,0,0,0,0,0,REST
-4.020917076496799,12.777633911629664,-0.2502008180849545,0.883236200446413,0.3483140674224229,1.4113597783387577,-0.9194928733776524,-0.2762762376249778,-0.0115831852686118,620,543,552,285,571,0,0,0,0,0,REST
-0.4288499448646542,0.9346536777715624,0.0750591383759436,-1.7657156928272415,-1.4548844408484891,-1.1993879058641437,-0.830810546875,-0.37109375,0.064697265625,939,452,464,1023,1019,1,0,0,0,0,U
-46.97724780896027,78.392174958013,-35.00758505409941,1.546932428611818,0.5756997455470737,1.7917373480350585,-0.872802734375,-0.321044921875,0.056884765625,1022,907,1021,1023,1023,0,1,0,0,0,Z
-50.14117002482708,51.138660540309886,-14.1909358831754,-56.53311992120168,-47.6422415309389,-89.65487036971894,-0.60400390625,-0.43310546875,0.33154296875,1021,1021,815,992,870,1,1,0,0,0,J
-10.895185468369144,-3.558376638087245,-3.55272725069024,-46.6219439265487,-22.83241284694129,-12.28863404509797,-0.384033203125,-0.862548828125,-0.461669921875,1021,1023,1023,985,765,1,1,0,0,0,J
-17.711973523016457,52.503028026841285,-6.071161908189872,5.943878993497314,-0.4853689567430026,4.341355668645745,0.42529296875,-0.154541015625,0.751953125,1023,800,1023,1023,1023,0,0,0,0,0,P
-1.207900874453457,3.157721639377198,0.060675035765622,-1.4512611249868086,-0.4874591057797165,0.230344390895979,-0.710693359375,-0.354736328125,0.39892578125,1022,1022,1023,919,1022,1,0,0,0,0,O
-2.381712424634307,2.7634946413475845,0.951250853427056,2.53872820225506,-2.090097345752504,0.3752013446319764,-0.156005859375,-0.485595703125,0.6953125,819,639,984,932,1022,0,0,0,0,0,P
-1.2347547289781216,3.65167457365643,0.8739785539134184,3.3682766384071483,1.0688078235480347,-0.176135364266367,-0.920166015625,-0.266845703125,-0.13427734375,635,1023,1021,1023,695,1,1,0,0,0,Y
-4.54395527591239,2.6420338526167253,1.363316586014457,-0.8963863015617339,3.291582043560473,2.32939981791442,0.461669921875,-0.411376953125,0.64990234375,573,906,1023,1022,1021,0,1,0,0,0,Q
-0.2591924425206203,4.652050568654789,-1.822727321948639,-1.775714539321853,-7.857944257056631,-2.199005858334812,-0.6806640625,-0.587890625,0.221923828125,795,1022,1022,871,590,1,1,0,0,0,J
-8.258336600178023,0.0185770451960374,-0.4735137440016239,-1.5861680796425934,-1.3303197664192488,-0.3608189397403875,-0.93994140625,-0.13671875,-0.04443359375,924,1021,1022,1020,1023,1,1,0,0,0,A
-3.191215697383275,2.6167714760844003,-1.6855015553417314,-0.7520710553014256,0.9257463072911633,-0.496215502978983,-0.976264388265016,-0.0574904078233226,-0.197166337345252,850,655,424,1021,1023,0,0,0,0,0,K
2.0511914783310283,1.8552719569256693,-0.5070718372264881,3.607920722739692,-4.101477694516421,-0.4030744449891449,-0.938232421875,-0.1904296875,-0.046630859375,1022,1023,1023,1016,1021,1,1,0,0,0,S
0.2444261955703611,0.9292882476105556,-0.1872637583177784,0.6432806674951174,1.193999644949406,-1.7955618675661282,-0.95751953125,-0.1025390625,-0.186279296875,900,1023,1021,1023,1021,1,1,0,0,0,A
-90.02538068383954,82.68370342875028,-57.96959128740626,-4.234249129348858,2.0046786505786747,4.879656664438739,-0.920654296875,-0.228271484375,0.003662109375,649,1022,1023,918,519,1,1,0,0,0,Y
-0.0838148212432193,3.129605227591027,0.0070166187604598,2.5021009874641083,1.2770852300581272,1.589957279921563,-0.962158203125,-0.090087890625,-0.1015625,614,482,1019,1023,1023,0,1,0,0,0,L
-2.0266005863155216,8.745501053456442,-0.3105175557968044,-0.3565976008724099,-1.2007246631723358,-0.3811517219544802,-0.82177734375,-0.421875,0.12255859375,963,651,1022,1023,1021,1,0,0,0,0,U
-0.0223716967487745,2.172557696299777,-0.1403195500074419,0.1138735205546601,-0.1026682540794173,-0.8066391203865815,-0.889404296875,-0.357421875,-0.046875,699,712,345,937,1019,0,0,0,0,0,K
-0.9095971169069048,1.4965747567196197,0.4064837079312479,6.561628965613839,10.894635478674978,-6.762203235520696,-0.164794921875,-0.461669921875,0.7109375,791,675,834,951,1022,0,0,0,0,0,P
0.5598061459927236,1.0563281021033806,1.1329891036790534,2.2305784064648755,4.548138723503458,3.4037743239890963,-0.9202078724804226,-0.2200474163283097,0.0502425882053208,599,1022,979,797,770,1,0,0,0,0,C
-73.30094114158153,62.36858714495053,-41.6717879255976,0.8269251064129172,2.461286804798255,0.7450311323741519,0.798828125,-0.241455078125,0.431396484375,770,619,1022,1023,991,0,1,0,0,0,Q
-0.2029554542780302,2.756889938689932,-0.8701763877499552,15.901118409373336,3.168862062843955,-15.64111485886739,-0.806396484375,-0.5263671875,-0.039306640625,1021,1021,1023,1023,645,1,1,0,0,0,J
-78.59011306370478,69.3087303453079,-41.12053541912562,-2.0104126358743457,4.72413550497766,-0.4060224434516479,-0.85107421875,-0.111328125,0.292236328125,711,654,862,1023,1023,0,0,0,0,0,V
-2.492505960457282,6.752135450020815,1.049106615231939,1.5151440531888698,1.702747388046575,1.391529180004924,-0.78173828125,-0.50048828125,0.11279296875,973,541,1022,1022,1023,0,1,0,0,0,D
-53.06364516044633,66.17546470015641,3.5636696221267226,-0.2959158546452307,-2.0806627502022725,0.0372181376860021,-0.790771484375,-0.31396484375,0.3115234375,922,1021,1021,698,881,1,0,0,0,0,C
-2.223629366824149,3.154816638512403,0.2705546274618893,-4.009709079396349,0.2546170893868504,-0.5801526717557259,-0.9541015625,-0.25634765625,-0.048583984375,821,646,1022,1022,1022,0,1,0,0,0,L
-63.02861473338204,66.36954954553154,-33.031037566021666,1.3153802657619451,0.1264136273678257,0.4147229290359064,-0.931396484375,-0.139892578125,0.007080078125,1023,1022,996,1023,1021,1,0,1,0,0,N
-4.9191935054693765,10.496918389614931,-1.473876488511507,-4.171316002392092,-4.028705104302248,-1.671263235656243,-0.888427734375,-0.31591796875,0.023193359375,644,480,505,351,570,0,0,0,0,0,REST
-113.62051141578344,76.40134225283073,-73.64187540350864,-1.0114503816793896,4.905322307039865,2.8999505230421256,-0.878662109375,-0.187255859375,0.2431640625,899,465,840,752,1023,0,0,0,0,0,W
-1.7697797430035809,9.801035914496246,-2.653770783727678,0.939946774984243,0.4893549968485188,0.93658519504167,-0.176025390625,-0.9560546875,-0.141845703125,839,485,1023,1023,1023,0,1,0,0,0,G
-1.854217500421513,8.24523831984134,-1.2553800203630334,0.4316511167656205,-1.1815804353972297,0.1233743285270003,-0.924560546875,-0.14599609375,0.055419921875,1022,1022,1021,1022,1023,1,0,0,0,0,E
-0.2648452238712762,1.9683092044035253,0.7681310702569825,2.7909245122985578,0.8275728018094429,7.904226745829798,-0.922607421875,-0.24560546875,-0.0439453125,723,1023,1021,811,930,1,1,0,0,0,Y
-6.350985084705389,23.202696115350392,2.1363127024522126,1.305696918292338,0.3207520497596831,0.5297921967769281,-0.870361328125,-0.35498046875,0.037353515625,675,490,1022,1022,1023,0,1,0,0,0,L
-1.5024021277176365,5.727011817851886,-0.0843241463177727,7.504661061666725,4.583529742850107,-1.1087698314982233,-0.9052734375,-0.31201171875,0.072509765625,831,429,1022,1023,1022,0,1,0,0,0,D
-0.4254804642325996,3.7532242620639886,-0.8177019488160202,0.3744679354135151,-1.3682414605832491,-0.3562458226334121,-0.943115234375,-0.107666015625,0.058837890625,1023,1023,1023,1021,1022,1,0,0,0,0,O
-0.4231295062706284,13.126831287723071,4.257502819754673,5.926865304112288,3.076582122629894,3.374080979350617,-0.96533203125,-0.187255859375,-0.108642578125,517,1022,1021,1022,687,1,1,0,0,0,Y
-0.1021071020352549,0.11357717342792,0.0058117644685374,-1.0837927622278771,-0.4581566299123552,-0.6315380265761941,-0.80712890625,-0.470947265625,0.058837890625,653,510,337,850,1021,0,0,0,0,0,K
-13.25137994823068,13.162653340842946,-1.6284045800585818,0.2909639623646378,0.2233623291319012,-0.2404402627374405,-0.7998046875,-0.436279296875,0.133544921875,951,701,446,1022,1023,0,1,0,0,0,R
-9.557604730740874,33.61842113069094,-8.019526300558443,-0.7954409540225844,-0.2854680409469869,0.0766524782776938,-0.89794921875,-0.2421875,0.119384765625,1021,430,402,1023,1023,0,0,0,0,0,V
3.289868645868316,6.361757368648526,-2.4009448007742837,-0.2454682649835899,0.2267990030346539,-0.4400538902941268,-0.9601015662748582,-0.0842434005340773,-0.2120449955066064,1022,1023,1022,1021,1021,1,1,0,0,0,S
-81.18832308291572,79.4282005429231,-44.80021397689156,1.7886516340099203,-2.3388327998030047,-0.9295036409047728,0.44873046875,-0.466796875,0.64013671875,614,903,946,1014,1023,0,0,0,0,0,P
-73.22810042008754,62.2919784739148,-41.62515148200558,0.5750167094663523,1.7360959651035983,-0.323671157702184,0.7900390625,-0.239501953125,0.440673828125,772,618,1023,1021,992,0,1,0,0,0,Q
-0.9588899833698296,2.4309506488597354,0.0560375323794804,-0.160973722165547,0.3256762936644738,0.2400886481162272,-0.823974609375,-0.356689453125,0.23779296875,968,455,383,248,1022,0,0,0,0,0,W
-1.987151195506084,5.146854944310478,-0.9511452338328408,3.2579941604812324,2.9969747071446164,-0.442431491187955,0.146484375,-0.634521484375,0.619873046875,628,742,703,707,1021,0,0,0,0,0,P
-2.1257719439774867,6.207401148691375,0.8851407779292326,0.9433285256974004,0.325992894079572,0.8070496359095226,-0.93408203125,-0.189453125,-0.06640625,1023,1022,1023,1021,1020,0,1,0,0,1,T
-10.7360950254047,36.02990279494642,-0.5829621418425897,-2.8940566917155186,-1.350059708234894,1.8418355600943284,-0.9517218854374478,-0.1282750775015641,-0.0639228746571102,972,1022,746,702,1019,1,0,1,0,0,N
-80.67228061351857,65.79979165013044,-49.35352452506692,0.9670978230138532,0.2474201300537176,-0.20073508623127,0.321533203125,-0.44775390625,0.68408203125,769,691,1023,1022,884,0,0,0,0,0,P
0.1626164921190051,1.0940961359144086,-1.4742216404323216,1.5375417199794776,0.6205627404357341,-3.444610198238718,-0.9361706386446804,-0.2048876327037213,-0.0380073864684981,859,684,428,1023,1021,0,0,0,0,0,V
-10.230244588645933,28.76308627017432,-1.6021315058666583,-1.444243167544127,-1.173907279536146,0.6447497617826878,-0.934326171875,-0.2276256145482111,-0.1064037287513673,1023,1022,940,704,334,0,0,0,0,0,F
-130.61297400981852,87.71464692357111,-98.4217169950288,0.3993386569106838,1.25658704752524,-0.0821753966299634,-0.9580078125,-0.08251953125,-0.076171875,795,708,361,1023,1021,0,0,0,0,0,V
-3.530687718869938,2.8321923887843514,-21.14683680285076,9.056143806944103,-4.682027649769585,-8.750624406374222,-0.580322265625,-0.578125,0.354736328125,889,589,1022,1022,1021,0,1,0,0,0,Z
-4.020523433916036,27.39229115708057,0.0300791691436926,-2.951865988125531,2.0267175572519083,0.7639949109414745,-0.963623046875,-0.1181640625,-0.070556640625,1023,1023,1022,1021,1021,1,0,0,0,0,E
0.983605959654186,-2.5336569971866583,1.1264237443991407,2.3424865705400064,-0.1638747526152112,0.3516398077466793,0.4130859375,-0.082763671875,0.765625,870,709,1023,1022,1023,0,1,0,0,0,Q
-4.143132130707228,10.441194680779608,-0.1359452817973522,-0.5495479649628869,-0.5617194920322229,-0.7044359235937656,-0.94970703125,-0.156982421875,-0.096435546875,1004,1000,1023,1021,367,1,0,0,0,0,B
-9.50923490780004,23.996071690998143,-1.797854300213387,-1.6369451512581286,0.3751413627367826,0.8570822731128073,-0.89404296875,-0.28759765625,0.044677734375,769,744,1023,1021,1023,0,1,0,0,0,L
-86.4134529235145,69.09351122055374,-47.28683189580939,1.1048204693242862,-0.5372844218264063,-1.4601357082273112,-0.907470703125,-0.26123046875,0.0,875,826,1023,1023,1022,1,0,0,0,0,U
-29.58181087123628,75.02267245307479,-17.192979977118384,-0.8881820752049757,0.3390585241730279,0.9215083404014708,-0.943603515625,-0.167236328125,-0.244873046875,1023,1023,1023,1022,400,1,1,0,0,0,Y
-1.4403219603944328,5.082865850747198,0.5642529490168243,0.8095137121854679,-0.6792479502403169,0.850402883799829,-0.874267578125,-0.34765625,0.04345703125,1023,460,1023,1023,1023,0,1,0,0,0,D
-101.73480051766776,85.87615203637755,-70.45067404852067,-0.1887731300382961,-1.0551876311133408,0.4708843459518982,-0.9203689347630648,-0.1161180833712672,0.0656394063638016,917,577,335,366,1022,0,0,0,0,0,W
-112.40060729537176,76.51660471894277,-72.5627002766556,9.240458015267176,-2.0259754028838,2.7396451795306755,-0.87451171875,-0.23388671875,0.194580078125,894,481,801,949,1023,0,0,0,0,0,W
-53.95764586404321,60.732702718652256,-31.800858965875538,-6.819974554707383,-3.851392422957306,-2.1807675996607294,-0.96484375,-0.081787109375,-0.2333984375,1023,586,1022,1022,1021,0,1,0,0,0,R
-77.8772229595149,85.3726187338241,-46.22328180334742,-2.463256762936645,1.3787244521053923,0.3605726949730901,-0.84619140625,-0.19873046875,0.2666015625,1022,1022,1023,1023,1023,0,1,0,0,0,X
-0.1829036587031705,0.8939787075923239,-0.3750349015491432,-0.6698380562587385,-2.153371398355464,-1.0586690621299932,-0.9056417563949648,-0.2965066811050351,-0.0555077311375004,574,504,502,272,639,0,0,0,0,0,REST
-23.6073921403844,45.08457319115362,-11.12832580100173,-0.0604979667546545,0.0421987586502105,-0.8190768352714558,-0.95361328125,-0.07958984375,-0.098388671875,821,1022,1022,1021,512,1,1,0,0,0,I
-1.411447531518972,7.311370661650368,-0.1424979191797648,1.9563794983642315,-0.2541597776761526,1.0005276673584969,-0.89208984375,-0.3115234375,0.024658203125,1021,1022,1021,1022,1023,0,1,0,0,1,T
2.16328597121038,6.600993882526335,-7.954503866309931,4.591918201554729,-3.846207717627285,-3.8097555851250062,-0.7666015625,-0.326416015625,0.349853515625,1021,1021,1021,971,1023,0,1,0,0,0,X
-1.2310311786945851,3.511295795956414,0.2477380202778085,-2.5424273586545074,5.4662786105341326,2.1998736334651023,-0.8868784177466035,-0.3301699356992324,0.1027355603296425,1022,758,1021,997,1021,0,1,0,0,0,X
-9.677623975383472,37.01688715710444,-2.239190402263499,2.0597194558267646,-0.0717262257976313,1.2535232366278617,-0.9482378805855394,-0.0215059095723029,-0.0091478163329915,1010,1021,1023,1021,321,1,1,0,0,0,I
-4.998732367897115,-1.9871320116658469,-0.7954399298483521,-2.87536496992296,-4.1462693917754265,-0.8247089035072284,-0.09423828125,-0.9140625,0.20947265625,847,678,1023,1016,1023,0,1,0,0,0,G
-6.789053957406561,15.60628421905302,-0.25570851182307,-0.1647582697201017,-1.5989892564320047,1.2256149279050046,-0.844482421875,-0.224853515625,0.2333984375,1023,1023,496,868,441,0,0,0,0,0,F
0.7462794396478238,1.0287234876902085,0.3280217612309994,20.54023390993767,-11.34956929756986,2.5328454373555567,-0.98291015625,-0.275634765625,0.0146484375,1022,738,1021,1023,1022,0,1,0,0,0,R
-0.6081603926434271,11.341594290039382,0.5499877402602411,1.344092905663794,-2.2992153074174877,-0.6834237960475537,-0.9259183650781364,-0.2618240116570693,0.0111148832675406,1022,672,1021,1021,1021,0,1,0,0,0,D
-6.975486232308145,16.7384095029614,0.4205714970854382,1.0618891346222443,0.505314974673611,0.6905899978597418,-0.792724609375,-0.41162109375,0.21728515625,1022,1022,1023,1002,964,1,0,0,0,0,C
-94.7827377896382,78.87149497323452,-56.7699321876579,3.719949343933585,6.958877123861117,4.6506490308509525,-0.375244140625,-0.9208984375,-0.037841796875,725,775,454,1023,1023,1,0,0,0,0,H
-5.781583584225016,17.07559150885643,-3.992093895969111,0.4927198190556968,-1.6166949392140233,-0.571282160022618,-0.381103515625,-0.904541015625,-0.263427734375,1021,849,1023,1023,1023,0,1,0,0,0,G
-6.252340423776726,17.187101431013946,-4.172830505431041,1.1263076053152388,-0.8151682216567715,-0.4415111676562057,-0.386962890625,-0.89697265625,-0.265625,1023,844,1023,1022,1022,0,1,0,0,0,G
-5.56563881596392,2.8312007326153505,-2.162011463963778,-0.7725401906638059,0.1954479895873641,0.5423013332395259,0.453369140625,-0.30859375,0.69921875,684,1014,1023,1022,1023,0,1,0,0,0,Q
-46.78306778259927,61.11784681379055,-33.1251457237353,-0.264290990959299,-1.742111372990467,-0.7983958912301686,0.592041015625,-0.24951171875,0.628662109375,277,689,1022,1023,1021,0,1,0,0,0,Q
-5.654154009413138,5.511739058915823,-3.0754867194163724,-1.3492102578534526,-0.3189573292996095,-2.076300700038696,-0.974609375,-0.092041015625,-0.131103515625,1023,763,546,1022,1022,0,0,0,0,0,V
-11.730779235843794,32.73906169894139,-2.3684209500939084,-1.2272135645688962,0.6771731100714109,-0.6184261441587218,-0.9462890625,-0.130126953125,-0.08447265625,737,1021,1023,1023,484,0,0,0,0,0,F
-0.2632630721248986,0.4303836388653291,0.0854968437495705,-0.16671335527698,-0.6682890958750614,0.0570067931928013,-0.844970703125,-0.41015625,0.010498046875,599,405,1023,1023,1021,0,1,0,0,0,L
-2.0244636085273084,9.485067944528687,-1.433939989778653,1.1492083686740175,0.3985722363584957,-0.5331142210913203,-0.9091796875,-0.154541015625,0.05126953125,1022,1023,1022,1021,1023,1,0,0,0,0,E
-6.5561235232155415,19.05291401745137,0.2430630065867262,-0.0468617472434266,1.6176844783715014,-1.1072236358495895,-0.86865234375,-0.167724609375,0.22119140625,1022,1023,1022,1021,1023,1,0,0,0,0,E
0.8149057140958065,7.006101730648206,0.9778317730490016,2.667903590613513,0.0718122702855526,1.0033220243143903,-0.876953125,-0.250732421875,0.146240234375,1022,339,250,286,1023,0,0,0,0,0,W
-2.6872994049307417,0.963028715875296,-4.021161980208055,1.4133446423522755,-3.09594995759118,-1.7616270851003677,-0.922607421875,-0.2685546875,-0.12353515625,737,1023,1023,1022,712,1,1,0,0,0,Y
-64.55832571544849,81.7537857479295,-26.45191862303492,-0.4556231751503848,-3.0945579906426994,-1.410419671439124,-0.949462890625,-0.09765625,-0.00390625,668,1023,466,658,597,0,0,0,0,0,F
-10.206226100975236,2.4995192432763367,3.1570188917243804,1.4959030744449897,0.2517683311156243,1.2021850269626728,-0.930419921875,-0.20068359375,-0.072509765625,1023,1023,1023,1020,1021,1,1,0,0,0,S
-0.0061968847163965,-0.4354439395874445,-0.4077385439254982,0.7981301211569454,-11.441137334547236,-5.723930247216194,-0.9150390625,-0.312744140625,-0.2412109375,710,1023,1023,1023,1021,1,1,0,0,0,A
0.1200939849088294,0.7306473661779825,0.2281403290309139,1.8444199931155325,-0.1911397518220377,0.6260041604827548,-0.9132247105913448,-0.3024272258921201,-0.0709737780338383,1021,1022,1021,958,1022,1,0,0,0,0,O
-0.429889062742695,0.8544879699146273,-0.1121792887619877,-0.5590542832909244,2.757280180944303,0.2410941475826972,-0.9599609375,-0.158203125,-0.180908203125,1021,1023,939,710,1023,1,0,0,1,0,M
-49.01153058395777,63.565370110907146,-35.07869127520042,-1.0929073658459665,-2.0830930263650664,2.115450442474775,0.5700404603915585,-0.183606309446526,0.6598032935316234,384,693,1022,1021,1022,0,1,0,0,0,Q
-6.266794524129888,-1.9733644228934284,2.4246920201303523,0.9927214628084504,3.26046511627907,6.893236286170779,-0.836669921875,-0.40966796875,0.0908203125,1023,1022,1023,1023,754,1,1,0,0,0,J
-58.23046551608011,65.28758155250202,-20.18590523762576,-7.013473106553628,-0.7600520631793717,4.342561649136384,-0.551513671875,-0.438232421875,0.52099609375,981,456,1023,1021,1023,0,1,0,0,0,Z
3.760458217038299,15.772073587543789,-5.602715604275854,0.7158608990670055,0.0304283290924512,0.1623197625106017,-0.6767578125,-0.287841796875,0.4697265625,949,952,949,588,710,1,0,0,0,0,C
-25.65009600437208,32.6094459734886,2.8607796386729683,0.3085241730279898,-1.163874752615211,1.1111111111111114,-0.9013671875,-0.26611328125,0.04345703125,1023,1023,1021,1023,1023,0,1,0,0,1,T
-60.8540111194867,65.1145778685333,-20.71576196898605,-2.181412037851337,0.9346044253702466,-0.6879727020086546,-0.625,-0.5341796875,0.386474609375,1023,1003,1023,892,1021,0,1,0,0,0,X
-5.388807219530584,19.125078943213587,2.0628770932236646,-0.3010945642524114,3.2260549024532432,1.7211582072093603,-0.876503227795568,-0.3138594469576868,0.0799319849925205,627,495,1022,1023,1023,0,1,0,0,0,L
-57.61151573977495,58.264791240882325,5.491079972668585,-2.2959158546452305,-0.5463116051641045,0.0448517254722615,-0.85791015625,-0.322265625,0.1689453125,515,1023,1023,1023,1022,1,1,0,0,0,A
-1.660854563732812,5.4498285526275545,1.2474469238839172,-3.2554450591778146,8.19514671895791,1.6175502486168514,-0.929931640625,-0.161376953125,0.002197265625,1017,1023,1023,1019,1023,1,0,0,0,0,E
0.259691116997878,2.258584557107136,1.2442706874193707,-2.433135425501837,4.9337008764489685,2.555626236923948,-0.95166015625,-0.137451171875,-0.300048828125,779,1022,1023,1021,937,1,1,0,0,0,Y
-0.0260192561101271,1.8779335308107987,-0.0038179195609885,-3.68873870719238,-5.211464388262484,1.1472091883185098,-0.971435546875,-0.036865234375,-0.141357421875,641,503,1022,1023,1021,0,1,0,0,0,L
-2.585626387584822,9.190763707981224,-0.4651350564088632,-0.1899954268828928,0.8659724909417102,0.2576423822422348,-0.827880859375,-0.326171875,0.21533203125,1022,1021,1023,1023,1023,1,0,0,0,0,E
-2.674034245817874,14.137525897246055,-1.380358097695498,1.8699475850423888,-0.5070883315158128,-0.6548000140711302,-0.910888671875,-0.246826171875,0.05615234375,1023,416,397,301,1023,0,0,0,0,0,W
-1.7630676504506966,1.7679531037636411,-0.7880629188411375,-4.959897280754216,-1.7693390086889225,-2.6030182572906035,-0.94189453125,-0.078125,-0.205810546875,1022,841,672,1022,1023,1,0,0,0,0,U
-3.479459091853952,7.044342314414497,-0.472130935592224,0.6225771273789004,-0.7004608294930879,0.0615611918246733,-0.910888671875,-0.275634765625,0.0048828125,620,424,483,353,560,0,0,0,0,0,REST
-5.754971335110797,4.959248685349805,-0.5443491096259472,1.2501060220525868,-3.654933559513712,-1.0337150127226464,-0.9482421875,-0.16650390625,-0.208984375,1021,1023,1021,916,1023,1,0,1,0,0,N
-103.5990353982117,77.1039891968561,-70.74643194641331,-1.0865139949109417,1.3382103477523322,-0.1834181509754032,-0.84423828125,-0.3466796875,0.174560546875,732,1022,1021,1023,1021,0,1,0,0,0,X
-0.2347727034637229,-4.216160111504766,-6.341094757814921,1.118740808179846,-7.40296939561594,-5.9300371174452025,-0.906005859375,-0.2919921875,-0.2158203125,661,1023,1023,1023,1022,1,1,0,0,0,A
-77.16263996019039,78.46310688015241,-45.59273369157843,0.346044253702466,-1.0238857424279733,1.4240334892883524,-0.92529296875,-0.220947265625,-0.0048828125,796,652,1023,1023,973,0,0,0,0,0,V
-98.19033848351064,77.80876055075186,-65.99228679906237,0.9187744046153306,-0.6024202342843072,-0.1783515671720543,-0.9326171875,-0.22412109375,-0.0947265625,876,589,1023,1023,1023,0,0,0,0,0,W
1.2022411007437686,1.90649193815463,0.1013081240332601,-3.097125971787385,8.932282688992858,4.930734864741267,-0.958740234375,0.02099609375,-0.121826171875,982,1023,1022,761,556,1,1,0,0,0,I
-0.6321589190584149,4.239929665598147,-0.3987204487365322,0.8423280649643082,-1.7820789824642065,-0.4290949508878318,-0.8648768708279686,-0.3052485132248446,0.1254426369899465,1021,535,407,1022,1022,1,0,0,0,0,U
2.02917371991924,11.104024486226216,-0.5728817267364048,-0.0638350024511522,0.9413824497513829,-0.941592548497794,-0.950927734375,-0.120849609375,-0.091552734375,1019,709,471,480,722,1,0,0,0,0,B
-3.088910668222215,1.726043907876344,1.520894895920191,1.7137580469272164,2.151686776655996,2.6436838217187884,0.303466796875,-0.429443359375,0.699462890625,972,573,834,637,908,0,0,0,0,0,P
-9.27495127598729,9.906581097240204,0.4359660892407996,-0.217149827686786,-4.637205995333573,2.695457901387102,-0.1969651722888317,-0.923742208417275,0.0603536903530533,620,723,433,972,1022,1,0,0,0,0,H
-17.058231638313817,51.58551711057014,-6.362520468937494,-1.2927622278767317,-3.2029262086514,-1.3304000565450942,0.419677734375,-0.01318359375,0.7431640625,1023,571,1021,1023,1023,0,1,0,0,0,Q
-2.3840689456287314,1.2830412594657017,-0.4240118660412728,-0.0350388781025465,-1.6436354779968414,1.9629189112667655,-0.941042652916918,-0.1112847073126571,-0.2601417246184012,1023,1021,870,666,1021,1,0,0,1,0,M
-1.570109362758335,0.8215735684529293,-0.2345692558569106,2.102538611752175,0.4923841647434758,-0.0132078821232027,-0.476806640625,-0.843994140625,-0.24609375,703,869,1021,1022,1022,0,1,0,0,0,G
-3.1330380134018494,1.250509284611566,-0.1795859295084355,-5.5413163541703305,-0.4652618988989341,2.076054455271397,-0.10986328125,-0.9521484375,0.095458984375,907,855,612,950,1023,1,0,0,0,0,H
-17.754903234433556,51.949317266366506,-7.165179875450719,10.279756856092732,-1.943384223918575,-14.223529827537462,0.43359375,-0.066650390625,0.751708984375,1023,798,1023,1023,1023,0,0,0,0,0,P
-6.965450123118087,9.066174539843423,1.0419054758351485,-1.621722589868338,-4.079004910695398,1.842579301920458,-0.2070721232838007,-0.9087018993404014,0.0976453025731097,748,690,418,986,1019,1,0,0,0,0,H
1.3489876442261506,3.3083772163382745,0.7769421458863351,2.0641501505707693,-4.349569297569859,-0.4676798095104704,-0.955078125,-0.157958984375,-0.0556640625,1022,1023,1021,977,1023,1,0,0,1,0,M
-0.6535156217779149,1.7383769954627155,-0.3489523330755042,0.846695043444613,-0.0218102508178842,-0.8330812255953841,-0.927734375,-0.194580078125,-0.018798828125,950,1023,504,338,651,0,0,0,0,0,F
-0.5420540830996821,2.4567047769991905,-0.3312427606567283,5.923030921307209,0.8560523446019631,-0.7491117599465291,-0.938232421875,-0.160888671875,0.013916015625,918,1023,486,252,619,0,0,0,0,0,F
-7.495983791471145,-3.155725846356904,2.3260070393444865,0.32033055536102,-0.8703690734645284,0.1182155613138178,0.176025390625,-0.418212890625,0.74609375,603,817,1023,1023,1023,0,1,0,0,0,Q
-2.630484665677616,7.863419953235646,0.0333174126273668,0.2790461516912947,-1.3747111142236852,-0.90058827648995,-0.883056640625,-0.276123046875,0.061767578125,713,672,639,304,579,0,0,0,0,0,REST
-10.750221063601664,12.045337117081374,3.791939675173525,-0.2827228797534837,-0.7711324322431543,-0.2939981791441972,-0.9287109375,-0.207763671875,-0.036865234375,914,706,519,1023,1021,1,0,0,0,0,U
-7.417271491502623,17.514166153012347,-4.62802927785087,0.1110404297427197,-1.0289086796720386,0.0394048628781453,-0.385009765625,-0.894775390625,-0.2978515625,1016,872,1022,1023,1021,0,1,0,0,0,G
-3.7982603373948094,8.758725446799158,0.9083421305223156,-0.4491561033685831,0.9805658659569996,0.1333426710553966,-0.9033203125,-0.24560546875,0.0791015625,878,1023,1023,738,1023,1,0,1,0,0,N
-5.470886463231754,9.441621592629462,0.0626258110576828,2.866926512939957,0.608453072115969,-1.6909668577873715,-0.7819540790728498,-0.5233391935170011,0.0865795822379299,868,948,1005,810,718,1,0,0,0,0,C
0.9854413494786866,7.291597641272583,2.769189982202014,4.293277517852745,-0.9234178773701062,5.267210750342983,-0.7646484375,-0.43115234375,0.200927734375,1021,915,1021,1023,1021,0,1,0,0,0,X
-62.23088447041745,70.26619901950107,-8.098280469764413,0.1239314735990442,1.5529250360572695,1.1135540155485977,-0.910888671875,-0.14453125,0.0791015625,1003,1021,931,839,529,1,1,0,0,0,I
-59.479373730452856,80.53886546133522,-21.38959696257181,-3.3029514194251943,2.2413198719527205,1.559045977415838,-0.8955078125,-0.114990234375,0.143310546875,1022,1023,1023,1023,1023,1,0,0,0,0,E
0.7583289939059019,-0.3062076760411883,-0.1928651722292643,12.17768318851796,8.123122383649347,6.6864600555809615,-1.072509765625,-0.09228515625,-0.146240234375,966,1022,1023,837,633,1,1,0,0,0,I
-12.344260518009431,17.13707164944777,4.300785038090881,-2.412493872119896,-2.4734225085790325,-1.064990545556411,-0.88671875,-0.30224609375,0.049560546875,845,686,468,1023,1021,0,0,0,0,0,V
-41.693865800495125,60.86104242055185,-26.13519075218679,3.296724868285322,-0.2240077893838734,-2.0565558557818604,-0.9149827587895172,-0.1257255828301317,0.1135288101474341,911,1023,1023,1022,1023,1,0,1,0,0,N
-9.775304307412082,36.01546516576177,-2.4105580880070065,-0.1019225332202429,0.6444020356234096,-1.0861252473847889,-0.938720703125,-0.055908203125,-0.010009765625,1011,1023,1022,1022,324,1,1,0,0,0,I
-0.537388522322693,0.8147496366585822,-0.0654579743642926,-0.6293312695676645,-0.7538959439969046,-0.3430189608470823,-0.918701171875,-0.254638671875,-0.064208984375,715,472,540,391,726,0,0,0,0,0,REST
-94.90095822986828,77.48558165695295,-56.93081144079581,-4.822728266135592,0.4269966913174146,-0.9742829675569002,-0.7797175817633717,-0.5495754417820751,-0.1340593604465131,886,1023,928,1022,379,1,1,0,0,0,J
-1.600520595095556,3.6519447609121065,0.6816433842291205,0.2240827382418123,1.875224258627361,0.3333450592746334,-0.8515625,-0.36328125,0.116455078125,1023,650,1023,1023,1023,0,1,0,0,0,X
-0.1196372123617981,0.0663104578498765,0.0034463961306832,0.7284928102254579,-0.3702112551038524,0.4829753239836675,-0.465087890625,-0.853515625,-0.255126953125,718,891,1022,1022,1023,0,1,0,0,0,G
-3.6341112930334,8.656356745092802,0.0811577084486428,1.023920920251873,1.3715833538537308,-0.4416927568860587,-0.96142578125,-0.128173828125,-0.129150390625,1022,1023,1021,1022,375,1,0,0,0,0,B
0.031133443161185,0.4129047857794059,-0.0479440972143286,-0.6092678167897223,0.5952027657073342,-2.455280503785568,-0.9692573502272572,0.0183910386989587,-0.2748657565572914,511,1023,1023,1023,1023,1,0,0,1,0,M
1.5965349416833114,2.8719987745067592,0.3361764993339329,1.689133570197348,-5.999015020930806,1.4956203609244731,-0.980224609375,0.015869140625,-0.125,955,1023,1022,758,583,1,1,0,0,0,I
3.4633619283539554,6.9607967488857785,-2.623556287649682,0.7259999296443519,-0.9960600837232206,0.1224891828191507,-0.953125,-0.1044921875,-0.2060546875,1022,1023,1022,1023,1021,1,1,0,0,0,S
-15.569478255655026,48.94070467323301,-3.6335632485165656,-2.0026858919988686,-1.126590330788804,1.1963175007068143,-0.965576171875,-0.027099609375,-0.080810546875,1023,520,1023,1023,1023,0,1,0,0,0,R
-127.30148940860248,86.65721515768043,-95.38235813875286,1.5431942542581836,3.1460707459404733,-2.251622655954699,-0.9505702207696654,-0.0629351853901926,-0.0445604173849594,782,661,348,1022,1022,0,0,0,0,0,V
-2.0663345921571854,4.721214496661984,0.7663956608245228,0.0256094557990642,0.8217891441235443,1.257009181412038,-0.843994140625,-0.36962890625,0.129150390625,1021,650,1021,1022,1023,0,1,0,0,0,X
-62.123907844017936,88.91903546370469,-29.990035049491578,5.7199493439335845,5.103915291800049,-1.6088929538818717,-0.958251953125,0.03515625,-0.068603515625,882,909,390,1022,1022,1,0,0,0,0,U
-6.710756283582419,21.47374056036053,-5.12234713469808,0.4030323284201637,1.6916311956942345,-0.5493017201955885,-0.940185546875,-0.111083984375,-0.008544921875,875,1023,1023,691,1022,0,1,0,0,1,T
-68.47920161755084,73.45765022893485,-37.58049249197291,-1.5281311846197343,-0.8273607577042694,-0.3994910941475831,-0.9521484375,-0.14306640625,-0.003662109375,860,1021,1023,1021,1022,0,1,0,0,1,T
-11.47160265039378,30.946029457634907,-1.5385789744746767,-6.420962724340506,5.828737889293336,10.312701741380012,-0.0636256824480306,-1.0063819104813565,-0.0789654639331721,880,1022,1022,1023,1021,0,1,0,0,0,G
-20.040418239652965,61.01562717135864,-8.368308335777673,1.5621996041843371,-0.844147582697201,2.310821317500708,-0.94921875,0.10400390625,0.00830078125,1023,1021,1023,1023,1022,1,0,0,0,0,O
-0.3866664972987227,1.4283776614304524,-0.147650008006485,0.8514984450098954,-0.1434124964659318,-0.4262439920836868,-0.92578125,-0.285400390625,-0.0634765625,1021,955,1022,1022,1021,0,1,0,0,0,D
-0.5812808673264526,1.1011690988473326,0.0666440112688739,-1.5831290706632115,-0.1153792282372714,-0.342425940191891,-0.88818359375,-0.284912109375,0.057373046875,763,1023,1022,1023,1022,1,1,0,0,0,A
-15.572348655656352,48.85688850127668,-5.2069803560775645,1.5392988408255586,1.2245547073791347,-0.73498020921685,0.533203125,0.006591796875,0.708740234375,1022,667,1023,1022,1023,0,1,0,0,0,Q
0.0128491734395938,1.960263218651092,-0.006001318521211,4.120421598151132,4.460291336928356,-0.2115694376356884,-0.9404296875,-0.056640625,-0.16552734375,640,505,1023,1021,1020,0,1,0,0,0,L
-88.8605826249731,80.81754484219243,-56.84243680070345,0.4680409469870197,-0.1708938685052946,0.7193513209272885,-0.82421875,-0.37646484375,0.177001953125,906,767,1021,1023,1023,0,1,0,0,0,Z
0.2712626717772724,0.6163078230132146,-0.2551216087244589,-0.2358321314243503,-8.614380694410244,-3.03018257290604,-0.982177734375,-0.04052734375,-0.067138671875,1022,865,501,1019,1021,0,1,0,0,0,R
-57.43176964511257,60.99172429718603,6.54306380151624,-0.3936479168815393,-1.8997557955876423,-1.702176143131468,-0.7963341603865306,-0.0923784032188163,0.3552282117309031,1022,1023,1023,1023,1022,0,1,0,0,0,Z
1.0241152004819931,3.9984481503368623,-1.281643349702248,-2.9381222077602285,-3.576212755478946,-3.2591902064938263,-0.971435546875,-0.013916015625,-0.195068359375,1022,1021,1023,1022,1023,1,1,0,0,0,S
-0.8924439154309948,11.313647334565102,-1.670639852660203,0.7416708282799462,2.9566954412499107,-0.7091389027609334,-0.862060546875,-0.0703125,0.254150390625,1022,752,907,923,532,1,0,0,0,0,C
-2.103819905685918,9.051321435333652,0.0372533245098389,1.8329486951890648,1.1317592756967867,0.8969643174152313,-0.851318359375,-0.48486328125,-0.189697265625,1023,1023,1021,1023,1019,1,1,0,0,0,O
-0.290801781919081,1.5676093217398686,0.1869963012664699,-1.6645090934674789,-4.453547683540299,1.9434340591690988,-0.423095703125,-0.85986328125,0.04296875,931,770,1021,1023,1022,0,1,0,0,0,G
-35.89490898858777,57.95104217679607,-24.217388190760698,-0.3000887626486787,2.1603763536303924,2.4248890466891524,-0.950439453125,-0.137451171875,0.041748046875,972,1022,1023,1021,1023,1,0,0,1,0,M
0.3545955389600626,0.623003418376266,0.7625006710044593,5.61242677081484,0.7866500976389137,3.0043316172554584,-0.89404296875,-0.2275390625,0.03466796875,602,1022,987,793,772,1,0,0,0,0,C
-0.3071976292109035,0.7305335240691212,-0.0786551194923319,-2.1592097823013856,-5.521840542832909,-3.496147865422675,-0.82861328125,-0.28515625,0.07275390625,1023,894,1022,1021,1021,0,1,0,0,0,X
-6.081337517078273,3.591586972631719,-1.0192662266715509,0.4952397814163104,-0.3799626213164823,-0.5081108357229243,-0.4565067429970466,-0.8554356707956045,-0.2987578760780837,1022,867,458,1022,1022,1,0,0,0,0,H
-9.489130504672028,0.6781328784124038,3.210704867068675,3.591620642347064,-2.512435360748584,0.6436838217187884,-0.860595703125,-0.31689453125,0.141845703125,809,697,1019,1022,1023,0,1,0,0,0,R
-0.9659441900615384,12.17288063084868,3.767698686856485,2.7589263728145776,-2.343265205614381,1.9542336511063416,-0.953125,-0.190185546875,-0.141845703125,509,1023,1023,1021,681,1,1,0,0,0,Y
-82.44132067745005,85.64290987327136,-50.73940305520063,-1.6006613430893164,0.2489534597389802,1.375839870545609,-0.83740234375,-0.2158203125,0.2890625,1022,1022,1023,1023,1023,0,1,0,0,0,X
-0.9410545680402116,2.7343819378882275,-0.1056551844351817,0.528340511170916,0.6148327359085405,0.3543720596141579,-0.9034888528225686,-0.2731070884770573,0.0472080791718204,651,692,645,353,677,0,0,0,0,0,REST
-4.261452222117638,2.5434774736520103,-0.5717483488840304,0.0033019705308012,-0.5763181253328601,-0.3872536836499204,-0.471923828125,-0.85205078125,-0.239990234375,695,841,1021,1022,1022,0,1,0,0,0,G
0.302047812900853,14.763369090955564,1.0363586614896112,1.0419493921402307,0.232117613797003,-0.15698331919706,-0.677978515625,-0.393798828125,0.4150390625,1023,772,1023,1023,1021,0,1,0,0,0,X
-2.0999875782960835,-4.398543408236732,-21.11052050039612,3.079044570302881,10.684384563970871,-9.888028986526894,-0.203857421875,-0.366943359375,0.78173828125,849,504,1022,1021,1022,0,1,0,0,0,Z
0.7889467674150958,1.229383154089026,0.392064929101425,12.860844596960568,3.879438336017927,5.258036277050213,-0.982421875,-0.28515625,0.04052734375,1023,742,1022,1021,1021,0,1,0,0,0,R
-3.3850156321610294,6.922717063703699,-0.4630748890165755,-0.8507053153691911,-1.5935906004854543,0.000492489534597,-0.91162109375,-0.2841796875,0.00146484375,610,418,487,350,562,0,0,0,0,0,REST
0.012812527295483,2.2581472398709583,-0.6084132075286494,1.5653076300700035,-0.3453406972244704,-0.9134977310303588,-0.9248046875,-0.110595703125,0.035400390625,1023,1021,1022,1011,1023,0,0,0,0,0,O
-6.59386303548268,19.62161087351767,-4.838702854048651,0.1740246948323774,0.6458296689766772,-0.0683856896612374,-0.94580078125,-0.135986328125,-0.014892578125,871,1023,1023,693,1023,0,1,0,0,1,T
-73.73617097465387,62.67179534327578,-42.02209508166206,-0.0029901150314841,0.796953600450276,0.3218419108593939,0.656005859375,-0.252685546875,0.574951171875,936,739,1023,1023,1023,0,1,0,0,0,Q
0.0055480636743168,2.6281542799610693,-0.6888965394965014,-1.1904175607696912,-1.6430506208885929,-0.2570091814120381,-0.93359375,-0.11279296875,0.0419921875,1023,1022,1023,1023,1022,0,0,0,0,0,O
-24.788678754887044,28.70058577432982,3.9349462010428815,-0.7296437659033079,2.5765832626519645,0.1187446988973709,-0.8955078125,-0.079833984375,0.16650390625,1023,862,396,1023,1023,0,1,0,0,0,R
-41.436192117808886,60.268402327223576,-25.593924392302064,-3.46106870229007,1.7160660394106162,-1.4932362861707795,-0.91796875,-0.13232421875,0.0517578125,1022,1023,1022,1023,1022,1,0,0,1,0,M
-2.978600123244618,10.229775147775351,-0.6955309259695465,1.8558060998346644,-4.660745066310199,-3.299609526154712,-0.790283203125,-0.3291015625,0.248291015625,1021,1021,1023,1023,1023,1,0,0,0,0,E
-1.631202242547212,3.426626024359345,0.3057309279070003,0.8023471498894199,-0.47941784975387,-0.4010130555753726,-0.822998046875,-0.489501953125,0.001953125,647,1022,1023,1023,1022,1,1,0,0,0,A
0.6253336096971801,1.373507611784469,0.3440165518459038,-0.5495831427867872,0.1811306152601398,0.3718999542688286,-0.96875,0.02099609375,-0.23681640625,1022,1023,1023,1022,1021,1,0,1,0,0,N
-47.42421369819076,61.56463560169561,-33.79582081649807,0.201357864002533,-0.4978365638301615,0.2703063988461673,0.5888671875,-0.2421875,0.639404296875,280,689,1021,1021,1023,0,1,0,0,0,Q
-1.2131446084482516,1.131722479425532,0.8561463149615872,0.3115988125530109,-1.830081990387333,-1.0703633022335313,-0.9765625,-0.0224609375,-0.25,879,1023,1023,982,1023,0,1,0,0,1,T
-5.05415024243873,14.126901869546597,2.0292754596561524,0.7365180989903966,0.0004573117106974,0.2464910120659926,-0.88330078125,-0.364990234375,-0.03759765625,1023,1023,1022,1021,1022,1,0,0,0,0,E
-1.5010528248750896,7.873881065975899,-0.1726110576614976,0.6586695747001091,0.6313364055299542,0.8096879727020083,-0.890380859375,-0.3056640625,0.03759765625,1023,1023,1023,1021,1022,0,1,0,0,1,T
-57.74969082091512,63.356504880150055,4.893304094940951,1.711154887958631,-7.74911175994653,0.5130685615787803,-0.751220703125,-0.204345703125,0.380615234375,971,743,495,1023,1023,0,0,0,0,0,V
-1.16988785829912,3.7136008143999786,0.7799656886673089,2.436978928483484,-4.473176909276392,-3.1914025398388857,-0.921142578125,-0.2607421875,-0.10693359375,631,1023,1021,1023,701,1,1,0,0,0,Y
-4.54102297044179,7.955554649229364,0.2580819446440279,-3.375424088210348,4.330223353124117,-4.10089765337857,-0.94140625,-0.197021484375,-0.080078125,1008,637,466,1021,1023,1,0,0,0,0,U
-4.588219709774216,7.760387433134742,0.1652721514312679,-1.8573051659861528,-0.6363571808982779,-0.5407775608024139,-0.878173828125,-0.348388671875,0.059814453125,1022,742,424,399,530,1,0,0,0,0,B
-47.27195651629806,67.7297762384137,-2.7526094044371066,1.8491223132937007,-2.324937559362578,-0.863545221092624,0.645263671875,-0.12451171875,0.597412109375,803,752,1021,981,1022,0,1,0,0,0,Q
-67.78388021471017,59.076796093699,-36.85868315730986,-1.3170412779191407,-0.7592945999434557,0.8337220808594855,0.436279296875,-0.271484375,0.7197265625,654,537,827,773,723,0,0,0,0,0,P
-0.1411278654212884,1.4431458182570411,0.3445771898409303,3.035199321458863,-3.905251625671473,5.362242013005371,-0.9248046875,-0.247802734375,-0.060546875,750,1023,1021,811,953,1,1,0,0,0,Y
0.0023083844813872,-0.079107811372527,-0.2797312116548452,0.2296379298270189,-1.109741578541915,1.165872960291337,-0.864501953125,-0.248046875,0.186279296875,1021,1023,1021,1021,1022,1,0,0,0,0,E
-3.312185401821245,7.560138279327767,0.8505223263622045,-0.7415837056319696,-1.401132725929574,0.5670665212649941,-0.9208984375,-0.2705078125,-0.05078125,587,493,534,287,646,0,0,0,0,0,REST
2.2675764146215007,7.24424552053672,-8.724347619557202,1.7445899572799195,1.0545556411513406,-1.985328104208976,-0.66748046875,-0.25732421875,0.515869140625,1019,1021,1023,859,1023,0,1,0,0,0,X
-130.33247805320045,87.05011442331858,-98.23804636469104,2.437506595841981,-5.392267914306822,0.3758398705456092,-0.94677734375,-0.07763671875,-0.038330078125,786,698,353,1023,1021,0,0,0,0,0,V
-56.05079351500746,67.00847340800613,-3.016819644479657,-6.7004960073169855,13.270482287965669,7.250958595701267,-0.82421875,-0.311279296875,0.257080078125,1023,1023,1022,973,1023,1,0,0,0,0,E
-0.7328793685614746,1.452110474688176,0.0719641937405591,-1.4145706546593029,-1.8976325324515424,-0.6497695852534564,-0.862548828125,-0.362060546875,0.08251953125,955,471,456,1023,1022,1,0,0,0,0,U
0.2126596883680362,3.040522846683717,-1.6496223969348365,14.107225279602345,6.794816261317238,-18.893023255813954,-0.761474609375,-0.560302734375,-0.017578125,1023,1021,1021,1022,656,1,1,0,0,0,J
-107.02012607844064,76.49221792845864,-73.1520555940204,-0.6870932564111584,-1.3672564815140535,-1.09807577303268,-0.945556640625,-0.201171875,-0.2197265625,850,1022,1022,1023,785,1,1,0,0,0,Y
-0.1413670259770149,3.896816961218392,-0.2017652028058413,0.4723326415027991,3.08857776057973,0.3848453934639595,-0.924072265625,-0.226318359375,-0.055908203125,1023,832,656,467,516,1,0,0,0,0,B
0.3482740576305589,5.382255475709754,2.6153814203121795,6.704269154650834,-4.7227876731693526,4.120511733107154,-0.923583984375,-0.15966796875,-0.331298828125,670,1019,1023,1023,857,1,1,0,0,0,Y
-2.067800446616431,7.088466087887026,1.6835616581056532,-2.7058267385671275,2.950871909797604,1.8847258211359352,-0.940185546875,-0.16748046875,0.010498046875,1023,1022,1021,1023,1021,1,0,0,0,0,E
-3.299387795797671,1.476638760067568,-0.2474771440370415,-2.2970415450100257,25.95458542934534,-3.8399760790797473,-0.07080078125,-0.97900390625,0.11669921875,888,867,543,963,1020,1,0,0,0,0,H
3.4171817386650662,24.01147024517327,4.372713565237986,12.47218773472386,-30.529797055099937,5.404884037346138,-0.6612895224074403,-0.6591013395242282,0.0599785613799652,1018,816,1021,1022,1022,0,1,0,0,0,Z
-9.609690126737362,9.669396097706224,0.5568867360192031,2.0736559178278204,-0.202626012604566,-0.7013405760381611,-0.185280077853726,-0.958621179022314,0.0529916099993067,616,734,442,983,1023,1,0,0,0,0,H
-0.4557469046136443,10.113549993126876,-6.653203647715369,0.6880337411551463,-3.083969465648855,-1.852731011886089,-0.9140625,-0.240234375,0.007080078125,1022,1022,1021,944,1023,1,0,0,0,0,O
-12.764747186278754,8.23656185883874,9.888294309559068,-3.0188223602400024,1.138110078348247,-0.5518562085838816,-0.8758737443690424,-0.3558003070107237,0.0257031395732784,1019,1021,1021,805,471,1,1,0,0,0,J
0.5115227290621621,2.1110929911922733,0.2060438164204327,-1.0866781580891416,-4.458683645829673,-1.7062299926126587,-1.006591796875,-0.184814453125,-0.137939453125,626,1023,1023,1021,1021,1,1,0,0,0,A
-0.2804788404254991,0.9030368736934468,-0.0205476206201359,-0.0881908045168322,1.889787877721884,0.0882259823407315,-0.918701171875,-0.273681640625,-0.12158203125,611,1023,1023,1023,1023,1,1,0,0,0,A
-1.684446437259785,-4.734731708022005,-21.08254929427044,0.9416399901502092,-18.040806275723785,5.073803074541809,-0.164306640625,-0.425537109375,0.7919921875,851,531,1021,1023,1023,0,1,0,0,0,Z
-1.3192815697350548,4.668515700986846,-0.6288514090174104,1.2713457732541702,-0.1968476109697485,-0.9834959004806332,-0.910888671875,-0.287841796875,-0.061767578125,1023,937,1023,1022,1022,0,1,0,0,1,D
-1.6166906457301409,5.314587996698704,-0.7290122486087208,-1.89659315804354,-0.3495193666949394,0.7645957025728018,-0.9208984375,-0.28955078125,-0.051025390625,1022,929,1023,1023,1023,0,1,0,0,0,D
-1.7347580791630868,6.485668390533636,-0.969312609806458,2.408750353406842,-0.189214023183489,-0.7010531523890301,-0.938720703125,-0.13671875,0.030517578125,1023,1023,1021,1023,1023,1,0,0,0,0,E
0.2543169780224105,0.5827370848810828,-0.2730610775144918,-3.754916100889999,-6.148731839448412,-2.625602420234284,-0.9814453125,-0.03173828125,-0.06298828125,1021,871,502,1021,1023,0,1,0,0,0,R
-2.4019742783797886,2.437009950776103,-0.9668502657322258,-4.509515601364903,-0.9143771766278538,-4.068667112252436,-0.950439453125,-0.054443359375,-0.205322265625,1021,823,660,1023,1022,1,0,0,0,0,U
-12.986706072267348,36.31503653059319,-3.0337696726096164,-1.2476518802546872,0.5570408414535477,-0.9533893833327473,-0.93603515625,-0.163330078125,-0.045654296875,525,1022,1022,1022,441,0,0,0,0,0,F
-7.1964689219991085,11.143412020674178,0.0250712603393157,-0.0634120362151602,-0.3233800816616367,0.1996804544647616,-0.781982421875,-0.504638671875,0.09375,986,1020,1023,884,744,1,0,0,0,0,C
-45.53906123478306,70.66587880454277,-3.128165232056142,1.475076511766983,0.1483448833855137,-0.1001864424666696,-0.88720703125,-0.256103515625,0.146240234375,932,1023,1023,907,1023,0,1,0,0,1,T
-1.7493380613424463,7.288546835836221,-1.095221127074838,0.706460277070964,-0.6777636415040997,-0.1743355951371218,-0.9326171875,-0.1513671875,0.043212890625,1023,1022,1023,1022,1022,1,0,0,0,0,E
-1.276158092726635,5.24008148324644,0.1268974451623892,1.5402272127214334,0.5199629712758491,0.1012858594418992,-0.8835355804359535,-0.3795308763424381,-0.0875421528172781,1021,1021,980,1022,1021,1,0,1,0,0,N
-2.402534727662687,9.50432610740882,-0.336901536308176,-1.4558342420937842,0.0206493826291909,0.7028177436943748,-0.829345703125,-0.39599609375,0.140625,997,635,1021,1023,1023,1,0,0,0,0,U
-75.01258421609955,84.82203743845272,-43.29674831783281,0.7046821683610655,7.195518345235163,4.513244450698281,-0.9560546875,-0.195068359375,-0.017333984375,676,1022,1021,964,544,1,1,0,0,0,Y
-1.0660245283822651,2.8610118549209824,0.0632257799356795,0.273929714707848,1.1613958560523443,0.0395046962394904,-0.7001953125,-0.35888671875,0.401123046875,1023,1023,1023,921,1023,1,0,0,0,0,O
-23.369207585407857,46.13429042838563,-10.962921038008131,2.441829233813966,2.5859838846480065,0.8117401752897936,-0.860107421875,-0.4111328125,-0.109375,896,1023,1023,1023,709,1,1,0,0,0,J
-13.704151080620504,13.9591871680429,-1.867230255893771,1.0543227409905922,-0.1430498846085567,-0.6526540031954559,-0.7958984375,-0.447021484375,0.158447265625,937,691,441,1022,1021,0,1,0,0,0,R
-69.62522901429486,70.28394955687016,-19.87884112759732,-0.906602877545994,-0.1569986280648679,2.23569142012875,-0.906494140625,-0.210205078125,0.04296875,995,1021,907,787,1023,1,0,0,1,0,M
-98.94358737595356,82.06959280289858,-61.76682373756681,1.979491328666409,0.2107855208076825,-0.8302669996833987,-0.93603515625,0.095947265625,-0.01318359375,1023,1023,1016,1023,1021,1,1,0,0,0,S
-2.3131775861163906,10.079234198425969,-0.0303727471984758,0.0619563287768516,-1.356790342623824,-0.3854784306763718,-0.839599609375,-0.47900390625,-0.19189453125,1022,1022,1023,1023,1023,1,1,0,0,0,O
-90.22617427490091,83.24346832434207,-53.78100093514357,-0.20371477820382,14.493228268899289,7.86438948886622,-1.036865234375,-0.00048828125,0.06494140625,1023,1023,1019,1023,1022,1,1,0,0,0,S
-72.98649816007958,62.02563366851922,-41.5123480017378,0.1551693812220775,1.0490730643402395,0.0809089949695718,0.791015625,-0.237060546875,0.442626953125,770,617,1023,1023,992,0,1,0,0,0,Q
-75.03381568362117,79.00130652670173,-38.092194386932974,1.3230027790480885,1.103915291800049,0.8872902522249984,0.522216796875,-0.260498046875,0.665283203125,770,948,924,944,1021,0,1,0,0,0,Q
-0.7255848940786094,1.5811371200904092,-0.1927454851401552,-1.8746819338422391,0.7292550183771556,0.1416454622561496,-0.869873046875,-0.28662109375,0.132080078125,662,1021,1022,1023,1023,1,1,0,0,0,A
-0.5493731726701091,3.066576073405147,-0.2760525284280437,0.7936117071797939,-0.1254089422028357,-0.0975481056741836,-0.87451171875,-0.28564453125,0.1064453125,1021,548,401,1020,1022,1,0,0,0,0,U
-79.2892671850718,84.97194830154724,-43.04365800304647,0.5978119393534319,-0.2701305097266687,1.177366588102861,-0.9033203125,0.03955078125,0.10888671875,1023,1023,1023,1021,1022,1,1,0,0,0,S
-5.031392608665972,10.816842653530676,-3.809923711735587,3.15368723299951,-1.594614468800336,0.3258981721409067,-0.19580078125,-0.98046875,-0.243896484375,852,844,600,1023,1022,1,0,0,0,0,H
-62.56653108997725,69.5063402885253,-8.163166413671755,0.7623281480972125,-2.1570309384571544,0.2870413392442457,-0.916564004625974,-0.1704702546259738,0.0664288677694043,999,1023,931,837,527,1,1,0,0,0,I
-0.081978486334286,0.3617966363063675,-0.0373334532282907,-0.2859061351427764,-1.2350155499010462,-0.1972363584959005,-0.9169921875,-0.289794921875,-0.081787109375,1022,950,1022,1023,1023,0,1,0,0,0,D
-0.5773008785634932,3.3205061749835494,0.101566945005884,0.7887571674816196,0.0611742357617757,-1.2271432089210963,-0.959716796875,-0.056884765625,-0.219482421875,1023,1021,582,402,445,0,0,0,0,0,F
-88.95038645061004,80.04081889498643,-51.84237921552534,0.9413233897351112,2.852006894853484,1.6659162064234716,-0.93408203125,-0.09130859375,0.049072265625,923,1021,871,1023,1022,1,0,1,0,0,N
-8.334504681861416,0.0233349819704344,-0.4839017349954256,0.055053294403208,-3.490625109930699,-0.5440250466106163,-0.943603515625,-0.156005859375,-0.03271484375,920,1021,1020,1020,1020,1,1,0,0,0,A
0.8364598918720343,5.509982781676388,1.1126316497484907,2.2797340556513164,1.037499560277197,1.904457030288105,-0.95654296875,-0.159912109375,-0.14208984375,603,1023,1023,1021,1023,1,1,0,0,0,A
-107.58317019921826,77.85344178481049,-74.94972833231365,1.322228866922292,-0.9437154817602984,-0.3431948499665814,-0.942626953125,-0.166748046875,-0.1171875,913,524,1023,1023,1023,0,0,0,0,0,W
-49.6329924064612,78.1669097423126,-37.69414284122641,-0.1270653029224354,0.0394432365116691,0.9487849462641224,-0.8812007871201315,-0.3056542577496349,0.0750282599864897,1023,902,1021,1021,1022,0,1,0,0,0,Z
0.3939226955198341,4.4386606354296365,-0.5950448808956927,2.55427550948946,-3.3458225365921983,-5.688808740107851,-0.9541015625,0.0,-0.296630859375,1021,1023,1021,901,1022,1,0,0,1,0,M
-20.044611772239364,62.210738731772864,-8.481280016008885,1.615634718688154,0.6978371501272264,-0.0937588351710483,-0.95068359375,0.04638671875,-0.024169921875,1023,1023,1022,1022,1023,1,0,0,0,0,O
-4.469110425807847,37.11470084422571,0.4175540555118652,-1.910128640090472,3.589411931014985,1.7790500424088205,-0.92431640625,-0.122802734375,0.09521484375,918,1022,957,938,342,0,0,0,0,0,F
-16.030289462858363,49.496366457688,-5.7855766014756345,0.783573649985864,0.0947837150127225,1.8070045236075776,0.504638671875,0.01611328125,0.71533203125,1023,656,1022,1022,1023,0,1,0,0,0,Q
-59.91554832338157,64.38982119756673,-21.0956889112691,-0.5554578393780552,0.194146410103071,-2.2375910226193416,-0.84033203125,-0.34521484375,0.031982421875,532,1021,1007,759,606,1,1,0,0,0,Y
0.1870722244936139,0.6967086382505406,-0.1343418612015822,1.94099059115924,-0.1953133321498303,0.6929877507544826,-0.9521484375,-0.109375,-0.16845703125,904,1023,1023,1023,1023,1,1,0,0,0,A
-1.556671755276832,14.86147933490556,-1.5329350685198408,-0.5043316266657754,1.6360074741392543,-0.2263899769308812,-0.8707467431102637,-0.0984746919389039,0.248141431921758,986,743,903,918,524,0,0,0,0,0,C
-3.503321887744,15.456786208569094,0.0037460716964724,2.596870907870451,-0.5908360223645428,-1.8963166639008768,0.3416451455764596,-0.8167570958179416,0.357241752344055,517,776,991,982,1013,0,0,0,0,0,P
-4.39935796674136,-1.5195504249690677,-13.36361484041178,-14.287367643437577,-70.23164597038027,29.333345059274635,0.10791015625,-0.367431640625,0.833251953125,955,724,1023,1016,1023,0,1,0,0,0,Z
2.069673955490315,3.718590846750262,1.1034480465357026,9.196722459555987,-1.7999509769591726,1.6320820785769308,-0.91650390625,-0.207275390625,-0.036376953125,1022,730,1023,1023,1021,0,1,0,0,0,R
-3.2319848732324217,8.597493224494333,1.0362147428382211,0.9092173788970536,-0.1664407505172287,0.0417350360276806,-0.845703125,-0.189208984375,0.259521484375,1021,603,409,271,340,1,0,0,0,0,B
-11.476269103811116,15.451585060842456,4.320062377717731,-2.6491350934939417,-1.824567546746971,1.0037117445199248,-0.877197265625,-0.26708984375,0.044189453125,863,695,502,1023,1021,0,0,0,0,0,V
-1.168748242772257,3.010670510082996,-0.1111286389691373,-0.142997854152742,0.2397720477011291,-0.8840187146023148,-0.947265625,-0.191162109375,-0.121337890625,1023,669,1022,1023,1021,0,1,0,0,0,D
-0.4670296736826818,1.3343678704700803,0.3316845117259306,-2.6752923874220893,7.050108551018978,3.121367042509981,-0.898193359375,-0.270263671875,0.101318359375,1021,421,1023,1021,1022,0,1,0,0,0,D
-3.474548472628367,11.044196727975004,-0.7950447353352005,-0.6098427551271677,0.0568121855981988,-0.16220494600204,-0.78759765625,-0.3583984375,0.279541015625,1023,1023,1021,1023,1022,1,0,0,0,0,E
-0.8808364084133681,0.6985384333721733,0.1181457485168804,-3.0860449572589435,-0.7835508495444474,-0.8854961832061072,-0.921142578125,-0.244140625,-0.19580078125,813,697,528,1023,1023,0,0,0,0,0,K
-0.4159158044978995,0.356864997290283,-0.0004848946663849,-1.1497653897331752,1.6885986413614398,-0.3844106730163175,-0.290283203125,-0.634521484375,0.53857421875,1023,723,1021,974,1021,0,0,0,0,0,P
-4.271840815828148,1.4694390582531904,-22.794649773082263,0.9293041989580532,0.9458145494060114,1.3521887571716162,-0.9185643906467212,-0.2794740526143526,-0.1096050877267898,770,509,559,390,729,0,0,0,0,0,REST
-57.03961166133978,68.63979934517464,-2.239894880657914,-9.204312801210117,-16.660815421958,9.289126534632569,-0.05517578125,-0.974365234375,-0.21044921875,777,694,1023,1021,1023,0,1,0,0,1,G
-25.26525910541352,31.9122897212665,3.134271797939736,-1.096055979643766,2.255972575629064,1.8744698897370653,-0.884521484375,-0.252685546875,0.026611328125,1022,1022,1022,1023,1023,0,1,0,0,1,T
-2.080248980079717,6.939299401127462,-0.7425433048456173,1.7664477187999288,-0.5726255991478787,0.3784839339605891,-0.89306640625,-0.31005859375,-0.003173828125,1023,407,1022,1023,1021,0,1,0,0,0,D
-7.53016630499099,26.74386549528036,-5.970223465342109,0.4030323284201637,1.3481197453125549,-0.3355612621803214,-0.881591796875,-0.236083984375,0.1298828125,1023,619,347,1021,1023,1,0,0,0,0,U
0.6863337022460849,2.3032155019749743,0.4989889344856122,1.8504096925555025,6.062644442888156,7.417816373695636,-0.944580078125,-0.194580078125,-0.05517578125,545,554,1023,1022,1021,0,1,0,0,0,L
9.482156441909057,9.00278279828219,0.2702155787229653,2.3313257230898534,-3.662546396806501,4.341480495833041,-0.8828125,-0.350830078125,-0.049072265625,1019,1021,1023,1023,1022,1,0,0,0,0,O
-29.55545751153174,40.83660434055005,1.030287139118229,-3.8517811704834606,-0.0341037602487986,-0.064461407972858,-0.80615234375,-0.451904296875,0.0966796875,1023,1023,1023,1023,1022,0,1,0,0,0,X
-47.49830763073308,61.60626233224635,-33.87359004105624,0.243977527329732,2.2375538356116267,-1.9913235572513253,0.599923107963123,-0.2307060448795015,0.6283664779856766,279,689,1023,1023,1023,0,1,0,0,0,Q
-27.865814593125457,41.8560872122155,-12.210489923992874,-0.0072094995759117,1.6156700593723496,0.8963811139383656,-0.950439453125,-0.111328125,-0.15283203125,902,1023,1023,1023,756,1,1,0,0,0,I
2.2503737866921982,7.590478662954043,-9.019269199989,2.4010785068982403,-0.2584214580853006,-2.6418166538272967,-0.6875,-0.267578125,0.491455078125,1021,1023,1021,863,1023,0,1,0,0,0,X
-7.194250501210884,21.169387332099515,1.7209132960319355,-1.201709642241531,-1.4526330601189017,-1.635698455693531,-0.91796875,-0.1904296875,0.06640625,1023,667,521,1023,1022,0,0,0,0,0,V
-129.50813548234163,70.86440634460797,-111.13341470090256,-0.6707355682977453,-1.2751609385443414,3.142399831146445,-0.667236328125,-0.712646484375,-0.09521484375,850,747,1023,1022,1023,0,1,0,0,1,Z
-0.8606952268390354,10.982144806612158,-1.6639525146530558,0.2150959549118928,-0.4282300064207743,0.5724120710565739,-0.8798828125,-0.328369140625,0.0654296875,776,1019,1022,1022,1022,1,1,0,0,0,A
-12.923585737931475,10.73595884194536,-5.985118631559437,-5.72325605938017,-4.242621451437014,-1.7709571885883135,-0.96142578125,-0.150634765625,-0.048583984375,1023,626,391,483,1022,0,0,0,0,0,W
-1.8132999674706896,4.009185900170417,0.631967837574468,1.0027086924402857,3.2187357090090405,2.157772540190664,-0.837646484375,-0.381591796875,0.118896484375,1022,651,1022,1022,1022,0,1,0,0,0,X
-86.69448106677821,69.3899807767814,-47.722378307399815,-0.4524314390726605,-1.64415465083404,-0.9563189143341811,-0.91552734375,-0.251220703125,-0.025146484375,877,822,1021,1023,1022,1,0,0,0,0,U
3.43753270380019,5.353405720193926,1.710537350628752,6.799775894670491,2.6809650535751786,1.3343721549128087,-0.91845703125,-0.216552734375,0.00341796875,1021,683,1023,1022,1022,0,1,0,0,0,R
-4.944283677130793,0.6514061032188528,0.1728157303328497,-3.6448968052021486,-0.0568631608707944,4.9803859202714165,-0.125,-0.940673828125,0.132568359375,578,773,1023,845,1023,1,0,0,0,0,H
0.0975651057222427,19.10196075113858,1.052074343116434,0.8053081707661849,0.6977664687588351,0.3621006502685888,-0.916015625,-0.258056640625,-0.020263671875,700,1023,1022,999,841,1,1,0,0,0,Y
-51.98990072721287,66.23270647668988,-35.88081961000203,1.0794254254437643,-1.4500885278056324,0.6253479356526788,0.4768472100676826,-0.2837331006134291,0.6819924960174678,523,697,1005,1019,960,0,0,0,0,0,P
-39.380442357528224,59.65208744467166,-25.15843288419908,-4.552671755725185,0.0290431386472575,-0.569572164033375,-0.928955078125,-0.11083984375,0.041015625,1022,1022,1021,1021,1023,1,0,0,1,0,M
-2.000783549430123,8.571926235563037,-0.3000837749802,-1.291136556403732,0.6405852417302799,-0.6415747808877579,-0.941650390625,-0.103515625,-0.0654296875,1021,649,1021,980,564,1,0,0,0,0,B
-8.425634236850982,29.817403820688423,-6.963051754716813,0.6508827844640471,0.001965075279521,-0.1274475283643789,-0.887447101433377,-0.2396895789213205,0.1381953337208264,1022,618,340,1021,1021,1,0,0,0,0,U
-2.649407348343761,0.8622065765119522,-3.97472060136243,0.7797568560927336,-4.553965224766753,-1.937199604184337,-0.9111328125,-0.283203125,-0.115234375,741,1023,1023,1023,713,1,1,0,0,0,Y
1.881172651731548,1.7643393452275011,-0.5037803763512697,3.1117375166328216,-2.872470060928636,-0.1435324602563203,-0.935791015625,-0.19384765625,-0.0185546875,1023,1023,1021,1015,1021,1,1,0,0,0,S
-4.695853351827937,12.855975315702764,1.8839869271222467,2.736518098990397,0.924121433848102,1.7884757448904205,-0.87890625,-0.377197265625,-0.041259765625,1023,1023,1023,1023,1023,1,0,0,0,0,E
