label,roll,pitch,yaw,gx,gy,gz,ax,ay,az,flex0,flex1,flex2,flex3,flex4
Y,-120.80589374115246,76.61928180939223,-86.95785029864803,0.0581000848176418,0.826477240599378,0.4841320327961558,-0.9443359375,-0.162841796875,-0.1806640625,918,1023,1023,1023,851
M,-60.99230331016327,61.45817275610843,-31.261003373802644,0.2768142962676329,-0.3338023709853308,0.0886129384036311,-0.93310546875,-0.148193359375,-0.000732421875,1023,1023,1004,968,1022
D,-8.43705614406122,23.851099650042663,-0.8797393601351182,-1.0461549335595135,-0.9865351993214588,-1.539086796720384,-0.94384765625,-0.125244140625,-0.03369140625,685,701,992,1022,739
P,-77.42906320944635,64.50330376483457,-46.11620728952075,-1.1603053435114503,-1.2318218594997714,1.131107749674605,0.505859375,-0.338134765625,0.6494140625,742,624,1023,1021,909
V,-76.56368095594203,78.477150244612,-45.03088324505457,1.4147465437788018,-0.7261758187638512,-0.4385619305589758,-0.91748046875,-0.190673828125,-0.012451171875,797,659,1023,1023,973
Y,-118.88998249363864,76.61375285432209,-85.05648497055982,0.3939779474130617,0.3073932711337291,0.1253534068419572,-0.95068359375,-0.1494140625,-0.202880859375,911,1023,1022,1023,848
J,-32.72228429882804,40.739200229543926,-14.131569832023246,-0.0189426067288659,-0.5086938083121288,-0.0246677975685607,-0.797119140625,-0.552978515625,-0.169921875,922,1021,1007,1023,1023
E,-10.471202365617737,29.87824060665006,-1.5951027673864513,1.7535089879340064,0.0783410138248848,0.5083899110001056,-0.9345703125,-0.239501953125,-0.04833984375,1022,1021,1021,1022,901
M,-60.745251035040944,60.90073419837813,-31.03641438634308,0.024905899321068,-2.1124283251838043,0.0199106483272952,-0.9306640625,-0.15087890625,0.007080078125,1023,1022,1006,968,1021
M,-60.31898492760584,59.51644084870732,-31.7975965238701,-1.0826618603336151,-0.8906205824144755,0.6867401752897934,-0.913818359375,-0.18115234375,-0.031005859375,1023,1023,1023,917,1021
C,-6.149229460420447,15.652051581681826,-0.591180123857624,-0.4430295141942522,0.4849614802828297,-0.9767826362261228,-0.83056640625,-0.363525390625,0.140625,548,962,841,803,359
B,-1.3501744737357897,0.3166274292596482,-0.2827586304219887,0.7139544838410503,-3.641150032103877,-0.4896554184204895,-0.5478515625,-0.46923828125,0.484375,836,382,560,451,248
Z,-130.92741765837533,71.21581456131099,-112.48892206514827,0.7491117599465296,1.3278924965701622,-1.5751574207619516,-0.662841796875,-0.70703125,-0.08740234375,850,753,1023,1023,1022
L,-51.58184206640709,54.6051628518855,-28.782439880372102,-0.6209941253034086,-0.0827030639884609,0.2671052168712846,-0.8818359375,-0.312255859375,0.07421875,835,1023,1023,1021,1023
W,-94.78732166478586,78.1131247962606,-62.69994767748158,-0.2796988778274175,-0.0833362648186583,0.3559995778661136,-0.9345703125,-0.223876953125,-0.101806640625,889,594,1021,1022,1021
T,-66.10754581239841,71.5293673262931,-35.13205732264983,-0.3949062510993071,0.2248918281915081,0.508530622295704,-0.93408203125,-0.172119140625,-0.009521484375,804,1023,1022,1021,1023
F,-12.480371553933196,35.074406803162645,-2.732221966064236,1.4699053716537098,1.8318500017588917,2.672564815140535,-0.94287109375,-0.154052734375,-0.048583984375,535,1023,1023,1021,439
H,-23.667462581959768,38.841251416415965,-9.62755549520316,-0.0074928764906598,-0.2860660639532837,-1.3105498293875542,-0.162841796875,-0.95703125,-0.27099609375,441,763,813,1023,1022
S,-62.34006398114347,67.04964011644854,-31.84976682546349,-0.7405283709149757,0.0901959404791221,0.4451401836282407,-0.937744140625,-0.08984375,-0.0595703125,1006,1022,1022,1023,1022
I,-27.11985910178926,41.10259956139688,-11.788682519727333,-0.0662750202272487,-1.1933373201533752,-0.0221972068807824,-0.9541015625,-0.083740234375,-0.11572265625,873,1021,982,1023,1009
A,-2.305901430933728,5.188322368636293,-0.0383569962275047,-0.3037956871987897,-0.9875118725155664,0.6602173989517011,-0.921630859375,-0.343017578125,-0.113525390625,542,1023,1023,1023,1022
V,-78.05990624234418,78.45275029949599,-46.42138193196981,-0.9134977310303584,-0.329229253878355,0.2713617335631616,-0.939453125,-0.18896484375,0.008544921875,792,649,1023,1023,973
E,-10.289549247488624,29.51293323102989,-1.4907798073096703,-0.1930558975621767,-0.1048650930453442,0.7908326590917086,-0.91455078125,-0.220458984375,-0.04345703125,1023,1022,1023,1023,899
W,-103.7399886005684,77.69795988110357,-71.22292210912667,0.0168853554719102,0.0257501670946635,0.13008759278151,-0.946533203125,-0.181640625,-0.1162109375,920,532,1023,1021,1022
L,-50.20931141877819,50.14507038464471,-27.102251823588144,2.4492911668484187,-1.9263728145776895,1.997713441446512,-0.87841796875,-0.190673828125,0.17578125,928,1023,1022,1022,1021
Y,-103.44819532899366,76.69922918411534,-69.78619671008873,0.6487846061842615,-0.0771801456361909,0.0240616315474726,-0.921630859375,-0.212158203125,-0.234130859375,845,1022,1021,1019,811
K,-44.51014572877365,48.21055429653182,-22.17646633907881,-0.5127871389875822,0.5993597636050233,1.2171878847574495,-0.549072265625,-0.62109375,-0.7138671875,429,680,691,1021,1021
Z,-134.84477535379995,72.36777466132114,-116.09280652592642,1.2223942026946213,1.946213107257185,1.2569036479403386,-0.675048828125,-0.677001953125,-0.103271484375,851,755,1023,1023,1021
Z,-130.6248190658392,71.16712454319655,-112.20193144968434,0.4056003095648502,-2.488901396559609,0.7301860906884302,-0.658935546875,-0.705078125,-0.099853515625,850,749,1022,1023,1023
H,-24.528400156064706,38.79668445959771,-10.22409968695959,1.2215147570971263,-1.68301262883878,-1.280015478242516,-0.167236328125,-0.966796875,-0.275390625,446,764,813,1021,1021
K,-58.8050484794216,57.346453536372906,-31.60890350282396,-0.566433320434798,0.2738945368839483,-0.5136314067611778,-0.934326171875,-0.21484375,-0.288818359375,533,652,637,1023,1023
P,-77.95020394411668,64.66806447894237,-46.74498508700089,-0.5114503816793892,-1.42266155415626,-0.6398846167376088,0.491943359375,-0.32763671875,0.648681640625,740,625,1022,1022,907
G,-14.067444088720777,37.57555603143057,-3.6719949516411226,-0.3544517536145213,3.762831111267457,-0.0647271959756574,-0.2119140625,-0.956298828125,-0.3662109375,379,758,1023,1023,1022
L,-49.810269038045135,51.54692463725029,-26.84016412422888,-1.3827699018538713,-0.2698842649593694,-0.2847293066450913,-0.874267578125,-0.175048828125,0.197021484375,880,1021,1022,1022,1023
P,-71.93727693164456,61.31821632541762,-40.69947691104736,-0.4211549335595135,-0.8067571388182075,-0.2351922533220243,0.39501953125,-0.2744140625,0.72705078125,765,449,854,852,740
Y,-106.33064606154652,76.55458036096594,-72.50465576123537,-0.893200126640166,-0.7794702219720688,-0.7392971470784815,-0.933349609375,-0.203369140625,-0.21923828125,847,1023,1022,1022,785
W,-97.80651570223648,77.85578411930457,-65.633175944902,-0.0277904808808526,-0.3352446617652232,-0.2317866816758711,-0.9267578125,-0.2099609375,-0.095703125,875,593,1023,1022,1016
V,-80.99142982240161,78.48285828509569,-49.31064598988165,0.9630632849051955,0.263024589298906,0.5872585921834879,-0.936767578125,-0.172119140625,-0.026611328125,772,710,1023,1023,978
P,-78.63631089726076,64.99380287084338,-47.43030104280433,-0.1603053435114502,-4.002814225911985,0.1540085130333836,0.493896484375,-0.337646484375,0.6552734375,742,626,1022,1022,910
K,-41.490329047919325,46.9410245006189,-19.82005213713324,1.298558100084818,0.7211620016963536,0.0077749505230417,-0.62353515625,-0.559814453125,-0.693359375,514,614,656,1023,1023
Q,-73.01215720070807,62.05243818156655,-41.52435928082168,0.7047877018327645,0.3849509269356595,-0.2473352798395884,0.80078125,-0.24853515625,0.452392578125,768,616,1023,1022,994
P,-81.95657411163212,66.26076968619556,-50.47093547730619,0.1350367543115632,-0.0273890302516258,0.2267458297992644,0.308349609375,-0.4609375,0.697509765625,767,698,1023,1021,883
G,-13.58103840234809,37.42192091064897,-3.391004569923356,-0.5147570971259718,1.5948921799697469,1.0039750941006784,-0.208984375,-0.943359375,-0.37548828125,381,755,1023,1023,1021
K,-37.7790057943721,44.6826294135863,-17.003681027159956,-1.710559796437659,1.6647229290359062,-0.5029332767882393,-0.500732421875,-0.54443359375,-0.81298828125,502,776,745,1021,1022
H,-49.91046958291856,48.511760580959965,-26.613426134644897,1.2758996728462386,0.1093678545045204,0.2347416188834555,-0.231689453125,-0.937255859375,-0.334228515625,458,803,657,1022,1021
G,-18.63983480004823,38.67089667516723,-6.417081037036939,0.6360150561086293,-1.6633482252787843,0.2865585534878813,-0.248779296875,-0.91650390625,-0.450927734375,643,904,1021,1023,1022
U,-63.30506924582868,77.54642965361907,-32.31324153023039,-0.1433496323917406,-2.730045379392831,0.3084391599535654,-0.9345703125,-0.152587890625,-0.0048828125,801,699,1022,1023,1023
F,-12.28158746834597,34.49433275290388,-2.6502417772311,-1.270552643613466,-0.4047912196151546,-1.7930840398212966,-0.926025390625,-0.14599609375,-0.05322265625,534,1023,1022,1022,441
O,-76.22892913131348,67.38073697306154,-45.078886678531205,1.7171351180215992,-0.5480353185351954,0.565026207478806,-0.841552734375,-0.47265625,-0.10302734375,773,1023,1023,1022,831
D,-8.081306621304838,21.311009263110577,-0.9389361212247268,0.0617019031202724,0.4179829035775844,-0.0177648010694062,-0.9404296875,-0.189697265625,-0.016357421875,682,658,1023,1022,916
G,-17.09935615647674,38.46058466940383,-5.494471673924015,-0.6139937383473459,-0.5806803391142226,0.5154254757800678,-0.2109375,-0.944091796875,-0.373779296875,380,749,1022,1022,1022
G,-15.924855978828283,38.12253174545859,-4.708175301029303,-0.2704822879656665,-0.2829704154501004,0.095578147535793,-0.2080078125,-0.9375,-0.37158203125,382,751,1022,1023,1023
K,-59.023281249504514,57.49828225201537,-31.79739422622078,0.1129559925423011,0.8158792697083759,-1.1166848418756818,-0.924072265625,-0.21875,-0.292724609375,533,653,635,1022,1023
C,-5.01847118916806,13.399905763855475,-0.3487510038488688,0.4501002567981142,0.4009920146339748,-0.221057445386428,-0.8427734375,-0.365478515625,0.158935546875,562,966,842,793,355
E,-9.766387074048996,28.281279241356277,-1.379009952191195,0.2254194955500055,-2.005065606641573,1.4456678509867382,-0.906982421875,-0.206298828125,-0.0537109375,1022,1022,1023,1021,905
Y,-116.3126673301168,76.57990366840569,-82.46701469666495,0.3100084817642067,-0.0666525303929884,0.0719182923381405,-0.94873046875,-0.145751953125,-0.20166015625,919,1023,1023,1023,855
E,-10.616924159232594,30.189047231117726,-1.6884959101577517,-0.8266436838217188,0.2844478840538924,-0.316037569915925,-0.916259765625,-0.2412109375,-0.0595703125,1022,1021,1022,1023,901
E,-9.971632168125302,28.69195234019076,-1.4543809590307166,-3.536567347943856,-1.1277658564041229,-0.4229077989235585,-0.9150390625,-0.246337890625,-0.05859375,1022,1023,1022,1021,900
W,-93.0001370936959,78.26921190663512,-60.959648344566034,0.2470186794244908,-2.037534738101101,-0.1554508038132758,-0.946533203125,-0.219482421875,-0.10791015625,897,613,1023,1023,1023
I,-26.87607393032335,40.06532073242962,-11.68542013629432,-0.6540612797692335,-0.9032609842755126,-0.5718155274914695,-0.969482421875,-0.06298828125,-0.136962890625,869,1023,989,1021,1007
W,-103.36718117435468,77.66713124382161,-70.90792124533318,-0.128152812467021,0.8578112357969537,0.4048967530868536,-0.953857421875,-0.1630859375,-0.096923828125,929,529,1023,1023,1023
N,-62.869456240016994,65.97069704937914,-32.91597434204808,0.6207237772123269,-0.3239680520214872,0.3765549901046087,-0.953125,-0.130126953125,0.010498046875,1021,1023,995,1022,1023
P,-81.63263044564286,66.154592256357,-50.20421366506385,0.4403802657619449,0.4229926491376871,-0.2160022618037891,0.325927734375,-0.443359375,0.687255859375,770,696,1022,1022,881
M,-60.04403613558284,58.97767024448292,-31.987138846162026,-1.907089341249646,-0.9974908114221092,0.4882668928470453,-0.93701171875,-0.201171875,-0.037353515625,1021,1022,1023,912,1022
G,-19.53353465076886,38.730978567205,-6.954263510847321,0.0176944454216064,0.4740563548738874,0.6682379428008585,-0.214599609375,-0.933349609375,-0.45654296875,642,905,1023,1023,1021
D,-7.8621494146806175,19.705066266511302,-0.9785003658952184,0.3136103000668373,1.715692827241707,0.4020825271748686,-0.944091796875,-0.183349609375,-0.024169921875,682,659,1023,1022,917
Z,-132.26017149439045,71.58681766065231,-113.73998305655924,2.275829317198438,0.014915397333521,0.5393463960319417,-0.668701171875,-0.690185546875,-0.09375,847,751,1021,1022,1022
Q,-74.22579281421625,62.92792457208831,-42.53794414020311,-0.6747458402223238,1.529778027931192,-0.2888451120413694,0.6552734375,-0.25390625,0.582763671875,936,739,1023,1022,1023
H,-48.89067624680246,48.62649313910245,-25.639852623272105,0.3140676117775361,-0.8982657332817392,-0.0324339536356284,-0.22900390625,-0.940673828125,-0.35302734375,461,808,662,1021,1023
U,-61.80691004458838,77.29862003840462,-30.851478116591547,0.5207725050128396,1.2012523305308336,0.0412635874344814,-0.93212890625,-0.166259765625,-0.012451171875,803,702,1022,1023,1023
B,-4.556900115276365,12.20557367597268,-0.3300390668115347,2.465719210609632,0.7970591339219755,0.9062510993069978,-0.94482421875,-0.181640625,-0.087158203125,995,995,1023,1023,364
G,-20.12946849145564,38.75239717235868,-7.331543296826035,0.0711295599254231,-0.151897843599395,-0.0340521335350194,-0.228515625,-0.911865234375,-0.4521484375,640,903,1023,1023,1023
B,-3.8531917097361794,9.409806792488713,0.0269218927272932,-2.557181552749147,-0.5693530798184825,-0.3914588243571244,-0.938720703125,-0.15478515625,-0.116943359375,1018,1003,1022,1022,369
N,-62.04442725508468,64.05747738788003,-32.31616092090101,0.8878993497314109,-0.1254947695787391,-0.5165747808877578,-0.927734375,-0.113037109375,0.00439453125,1023,1022,998,1023,1022
L,-52.127144819679216,55.5443677267382,-29.41131751629912,-0.0179406901889047,0.6653885390649742,0.0380975832834984,-0.880126953125,-0.3017578125,0.0615234375,826,1023,1023,1023,1022
A,-0.8630981133863223,2.8154948761304066,0.0023749842424595,-0.1874274457382062,-0.140746473423154,0.630210715165159,-0.915771484375,-0.278076171875,-0.111083984375,610,1016,1022,1021,1020
Q,-73.53953620033741,62.52480607082251,-41.84036913798799,0.0864670911457416,-0.5692475463467832,0.6915960178703351,0.778564453125,-0.21923828125,0.43896484375,772,624,1021,1022,993
P,-76.92510060346149,64.17873681205086,-45.46313229534741,-0.8167938931297709,-0.4150279663700003,0.2608787420410172,0.508056640625,-0.34716796875,0.64501953125,742,623,1022,1022,908
X,-101.75593924654316,76.80061961105672,-68.56514266196741,-1.715719536330223,1.7479502403166522,1.9508057675996588,-0.792724609375,-0.3935546875,0.24853515625,984,984,1023,1023,972
N,-62.80864694582872,65.7528036012062,-32.875738823272634,0.2314108001130902,-1.2018306474413345,-0.1654297427198187,-0.9423828125,-0.136474609375,0.02001953125,1023,1022,997,1023,1021
A,-0.2242591813492685,0.7105973650853578,-0.0158892291409582,0.2705878214373662,0.9432229922257008,0.6531114785239376,-0.912109375,-0.2666015625,-0.113525390625,611,1021,1021,1021,1022
P,-80.0373746601547,65.49431412579698,-48.79465791541102,0.3793115634718685,0.8123056262369237,-0.3534068419564609,0.3232421875,-0.444091796875,0.684814453125,767,692,1023,1022,883
Q,-74.04293428272021,62.84020150315504,-42.33323577533324,0.7451014880219511,-0.6763288422978156,-1.494951982270377,0.63330078125,-0.253173828125,0.576904296875,936,739,1021,1022,1023
Z,-131.84025026832205,74.62688656996382,-106.07838662715344,16.773572236358493,9.779474130619166,4.83799830364716,-0.72021484375,-0.642333984375,-0.0400390625,733,712,1023,1022,1021
K,-54.66204927078704,55.466053770849015,-29.26316559584079,-3.059124964659316,-3.05689850155499,0.7401399491094146,-0.9296875,-0.265625,-0.279052734375,521,652,826,1021,1021
K,-42.7918657516878,47.51948979340726,-20.752939095840617,-1.6272909557814754,1.3932528933760158,-1.3934991381433135,-0.55322265625,-0.62353515625,-0.6884765625,431,692,694,1022,1022
R,-66.83888970066744,60.70913106213801,-36.19285124958414,-0.2720525869380831,1.1170483460559804,0.1869875600791625,-0.87158203125,-0.195068359375,0.193115234375,405,647,1023,1021,1022
H,-47.38027558256957,48.8612654403051,-24.453344826675583,0.2224645583424217,-0.5852886340450978,0.395046962394906,-0.228271484375,-0.938232421875,-0.351806640625,461,807,655,1021,1021
R,-67.57516090296312,59.41351144779888,-36.73655251344641,0.5523748939779475,0.8422391857506369,-0.7061422109132038,-0.88037109375,-0.183837890625,0.177978515625,405,675,1022,1022,1023
P,-80.21378604446578,65.57808946787785,-48.93516427412562,0.3106092733955327,-0.1113584959004808,0.180944303081707,0.341552734375,-0.442138671875,0.67822265625,767,695,1022,1022,883
I,-27.042902757533504,40.86603759528046,-11.78223386242153,-1.0739086080135083,-1.491047243817497,0.1915432511344846,-0.962646484375,-0.08056640625,-0.1337890625,868,1021,985,1022,1008
P,-69.95517249163808,60.14403638146317,-39.19116393836842,-0.0345985298275374,-1.7134930732258984,0.2993709358213176,0.412353515625,-0.274658203125,0.716064453125,677,538,841,782,728
Q,-73.32485373664893,62.39342366040774,-41.67545429159357,0.0024976254968867,1.5605234460196291,0.8977028880993427,0.79052734375,-0.25,0.439208984375,767,622,1023,1022,991
G,-17.499731582778384,38.56508967443979,-5.746698233969827,-0.911703662011468,0.4193196608857775,-0.2708340662046651,-0.209228515625,-0.928955078125,-0.374267578125,385,749,1023,1022,1022
K,-40.92384697934018,46.53186556023034,-19.37788706895273,-0.2907124681933843,1.1761733107152956,0.710807181227028,-0.48828125,-0.55712890625,-0.818359375,500,763,740,1023,1021
K,-56.36943656309251,55.66340721196045,-29.816678710246336,-2.2916241601294542,-2.039082562352693,-3.2235550708833154,-0.931884765625,-0.215087890625,-0.283447265625,542,655,650,1023,1023
Q,-73.34873861531497,62.40276449950321,-41.6909589796507,-0.4326168783199072,-1.3936750272628138,0.2183135751222435,0.778564453125,-0.249755859375,0.422119140625,773,619,1022,1023,993
K,-42.03136083802201,47.336128288824696,-20.27472355079703,3.481764206955047,-1.1643341815097534,0.6489963245688433,-0.59765625,-0.56396484375,-0.683349609375,506,606,649,1023,1023
N,-62.615618298952384,65.22200645831892,-32.743831024672026,0.0558382810291207,-0.7132810291207239,-0.2188648572236354,-0.93212890625,-0.12109375,0.007080078125,1023,1022,997,1023,1023
Z,-135.94814802451077,72.61858961343562,-117.13982605095173,-1.1745523621908749,0.2973581454251241,0.1805677700777432,-0.674560546875,-0.69482421875,-0.094970703125,847,756,1023,1021,1023
B,-5.396385791340855,3.525591884368069,-0.0388004751969854,-0.482762293626842,0.9373690750931998,0.4764778981004791,-0.385498046875,-0.643798828125,0.464599609375,813,286,376,462,148
J,-32.0325427396932,40.34517764693513,-13.717192207784812,-0.553293751767034,-1.1499151823579306,-0.352912072377721,-0.8212890625,-0.539306640625,-0.1611328125,925,1022,1003,1021,1021
L,-50.503139619263465,53.07956251478949,-27.62962496376564,-1.4606887817919585,0.1005030428817681,-3.022971119006578,-0.882080078125,-0.291259765625,0.06298828125,870,1023,1021,1022,1022
S,-64.3875415838472,69.94585318244857,-33.42713152157084,-1.3457980089351675,-0.2891617124564674,0.1194990677876677,-0.957763671875,-0.090087890625,-0.065185546875,991,1022,1023,1021,1022
O,-76.69926971790056,67.33718475687711,-45.51265111876544,-2.29813205755092,0.7420410173426673,0.4276216273261343,-0.818359375,-0.5009765625,-0.11767578125,771,1021,1023,1021,832
H,-26.416448964140912,38.71903572206376,-11.426544751886174,-0.9845921131318812,0.4925598902451896,-0.1273437225173249,-0.166259765625,-0.980712890625,-0.259521484375,441,763,808,1023,1022
C,-7.357986894939379,18.197276610647133,-0.8207301736187511,-1.725401906638055,1.3019312625320998,0.7245576388644601,-0.8095703125,-0.416015625,0.15673828125,569,957,865,890,368
P,-71.78675562338853,61.19576822924199,-40.59932048298785,0.2277000282725476,0.1092733955329375,-0.7008411082838564,0.400146484375,-0.2763671875,0.728271484375,764,449,855,854,738
A,-0.9477745877641812,3.0206863393636443,0.0020504304096735,-0.5767404228374429,-0.5147922749498716,-0.8430717275829327,-0.92529296875,-0.28271484375,-0.09765625,609,1023,1021,1022,1022
V,-79.43339288377695,78.422292090016,-47.777596499479685,0.6577197734548139,0.7286734442607381,0.266647905160587,-0.935302734375,-0.189453125,-0.015625,770,707,1020,1014,981
P,-72.30673650826535,61.53937410461541,-40.98202629309278,0.7620511733107155,-0.6998869098105739,-0.0596197342380548,0.39599609375,-0.281982421875,0.7255859375,767,449,856,853,744
I,-30.579688982068102,39.53309813484205,-13.327100175734248,-9.72476675148431,-26.819444444444443,-4.286824992931864,-0.87939453125,-0.327880859375,-0.017578125,876,904,958,1023,729
W,-102.26651140631527,77.62444179515987,-69.87681509679183,-0.1357864002532806,0.3387272663313048,0.2903929362929605,-0.9482421875,-0.167236328125,-0.13623046875,932,533,1023,1022,1022
B,-0.4490321463266096,0.1702616415670231,-0.1260396003295681,-1.4692516230291788,-2.8854248412641814,-3.4743882428479704,-0.564453125,-0.471435546875,0.4892578125,841,392,585,459,248
N,-65.88425335632235,67.51438730629545,-35.18161634343922,-1.136665845850776,-1.30379568719879,-1.0543145601013122,-0.927001953125,-0.201904296875,-0.047607421875,1023,1021,1022,1023,1022
U,-67.59101255306621,78.21316319093334,-36.41448447377595,-2.288387800330672,-1.508671333591304,0.247370457663489,-0.941650390625,-0.16552734375,-0.0166015625,802,687,1023,1023,1022
W,-105.0798697625522,77.78930495516077,-72.49264164729898,0.7497097829528263,-2.57730326801984,-0.8241108805009326,-0.94091796875,-0.1611328125,-0.12158203125,914,525,1023,1023,1023
X,-107.48865471294488,77.66800092988326,-74.72150991939672,-1.147582697201018,0.6282866836301948,-0.7788379983036476,-0.850341796875,-0.33056640625,0.168212890625,735,1023,1023,1023,1023
J,-32.37035807210874,40.5456915825329,-13.914318863959704,0.4390726604467065,1.1859626802374894,0.5325841108283857,-0.81005859375,-0.531494140625,-0.15380859375,923,1023,1006,1022,1023
R,-62.6607416353479,63.51876964530419,-32.44282575187791,-1.3591673734803509,-1.7444868532654794,0.3489892564320043,-0.85546875,-0.211181640625,0.2490234375,575,641,1023,1022,906
D,-7.7632102329925905,18.993684715192668,-1.000956639156147,-0.7856263411545368,1.089738628768424,-0.2467724346571924,-0.926513671875,-0.19970703125,-0.02978515625,687,665,1023,1023,919
Q,-74.31133333048547,62.97643317019917,-42.61974789290311,-1.476272557779576,0.2702360431983676,-0.2964786998276288,0.66943359375,-0.24169921875,0.588134765625,934,740,1023,1023,1023
B,-2.307556166882481,0.7286255715842894,-0.4899710630512773,-2.621923378754369,-2.5342798030962426,0.0599629021901975,-0.550048828125,-0.48046875,0.490478515625,832,381,545,449,249
X,-105.04907482277756,77.34371959805712,-72.20696171460928,-1.849872773536896,0.5519508057675994,-0.687234944868533,-0.841796875,-0.343017578125,0.1708984375,729,1022,1022,1023,1022
Z,-136.13237627790028,72.74226819537401,-117.15428298522312,13.697236358495898,8.642069550466495,5.685326547921969,-0.71533203125,-0.64111328125,-0.0595703125,730,704,1023,1021,1022
P,-79.40613242305781,65.2576814118857,-48.21843990358682,0.2213740458015268,0.1803918809582439,0.2074436275372003,0.4873046875,-0.330810546875,0.6708984375,739,627,1023,1023,911
C,-7.573141275465048,18.59586532563887,-0.9140604352760544,-0.2521194638899636,-0.4614275160938543,0.89249657016217,-0.81298828125,-0.419189453125,0.1396484375,566,959,865,885,369
M,-60.47214407868679,60.04049958483996,-31.549257244321183,-1.7162496465931574,-1.615811422109132,-0.2216567712750921,-0.935791015625,-0.190673828125,-0.031494140625,1019,1023,1015,909,1023
R,-63.10596022624144,63.37844108817797,-32.91178649172351,-1.153060503251343,-0.9811280746395252,0.3108213175007065,-0.844970703125,-0.204345703125,0.244873046875,575,644,1023,1023,906
H,-24.968319316410145,38.76450405486541,-10.46846759090556,-1.5113096703837896,0.1566820276497697,-0.1044429591585463,-0.169921875,-0.975341796875,-0.254150390625,447,767,819,1023,1023
K,-41.34165463613114,46.82266107782194,-19.71927983710225,0.1306191687871082,-1.7673876166242573,0.4963245688436525,-0.616943359375,-0.5556640625,-0.723388671875,519,619,660,1023,1023
B,-0.9848728926178988,0.2418775802162767,-0.1956208966477232,-0.4158165085253619,-2.625882856531357,-0.0011058000998788,-0.55615234375,-0.46435546875,0.494140625,837,382,563,455,247
F,-13.059772223424776,36.66806115396394,-3.1075786226984774,0.1340275090582899,0.0150561086291202,-0.938122207760228,-0.9482421875,-0.151123046875,-0.047119140625,527,1022,1021,1022,441
K,-38.98864891279767,45.43277494223151,-17.939460589814523,-0.4968193384223919,0.8326618603336161,-0.3273607577042696,-0.502685546875,-0.541748046875,-0.81982421875,502,768,741,1021,1016
R,-66.11246557494682,61.9551301913928,-35.61305405831642,-0.7606022052586938,1.9185750636132324,1.0724837432852694,-0.872802734375,-0.1787109375,0.190673828125,400,637,1023,1022,1022
M,-61.25630827987187,62.02101307167471,-31.50778488544448,-0.1812009709079396,-0.0666267984662468,0.1038801139761502,-0.940673828125,-0.14794921875,-0.001708984375,1021,1023,1007,967,1023
S,-62.73267631875767,67.74756448910924,-32.13836170117283,-0.3228972455763887,-0.6708411017694444,-0.1782108558764543,-0.962646484375,-0.0751953125,-0.082275390625,1010,1023,1023,1023,1022
I,-26.606779717421727,39.39406829158049,-11.543291386919414,-0.9899391423646532,0.6310901607626553,-0.7473880465754389,-0.96044921875,-0.071044921875,-0.136962890625,871,1022,995,1023,1009
F,-11.778968502286126,32.901297362238765,-2.3934052428192776,-0.4867555493017205,-0.0709184929820242,-0.9390368311816226,-0.953369140625,-0.150390625,-0.075439453125,740,1023,1023,1022,483
P,-80.44858179975358,65.69082023631353,-49.15330682361955,-1.208474696070116,0.8123056262369237,-0.9335595137121862,0.3212890625,-0.454345703125,0.681396484375,767,694,1021,1021,884
G,-19.67944411716573,38.73985848498173,-7.078251072122,1.0176944454216064,-0.1976993703169522,-1.637105568649523,-0.229248046875,-0.926513671875,-0.449462890625,645,906,1023,1021,1023
S,-63.49297975514322,68.75485553276205,-32.78178124797564,-1.0251873219122665,-0.8922151475709712,-0.384317726105462,-0.94287109375,-0.070068359375,-0.087890625,1002,1022,1023,1023,1023
W,-95.13030441557665,78.0969013389448,-63.03256349568303,1.26228585499701,0.0998698420515706,0.6231751503851974,-0.934326171875,-0.220947265625,-0.09033203125,884,594,1022,1023,1023
A,-2.138459937737521,4.760008805371834,-0.0428395151230657,-0.8152460688781791,-0.659267597706406,-0.7443627537200548,-0.906982421875,-0.330322265625,-0.11279296875,541,1021,1021,1021,1022
M,-59.34194899020334,57.70362085964188,-32.02884704916607,-0.6475473565168215,-2.1730633305060785,0.1600226180378849,-0.92822265625,-0.201171875,-0.025390625,1021,1023,1022,913,1023
D,-8.820987088594624,25.145026069072504,-1.0239579141618416,1.9462114786542268,0.4256785411365564,1.5677834322872497,-0.93017578125,-0.147216796875,-0.03759765625,685,706,996,1023,741
B,-3.4425645581116986,7.742446576806848,-0.0357528543888306,-0.021880606465684,-0.0482639743905439,0.3674675484574528,-0.94873046875,-0.12353515625,-0.138427734375,1022,1021,1023,1023,373
R,-62.52866983132529,63.559608610942426,-32.31450100910035,0.7248020921685044,-0.019296013570823,0.1047144472716988,-0.841796875,-0.214111328125,0.2421875,573,640,1021,1022,907
P,-69.03725147406017,59.69343620717847,-38.2093576258554,-0.4773466214305909,-0.2173098671190281,-0.3265832626519649,0.41943359375,-0.26513671875,0.721923828125,665,531,832,774,724
A,-1.046399305047314,3.2747143711024718,0.0080998471399235,-0.5862384352903927,-0.3844584374010624,0.3701410630738384,-0.908447265625,-0.333740234375,-0.115234375,532,1023,1022,1022,1023
A,-2.0215629338472763,4.690294993931202,-0.0036610324736324,-0.79997889330566,-0.842473704576635,0.8739578569669681,-0.919677734375,-0.339599609375,-0.0966796875,540,1021,1023,1023,1022
H,-26.356543269507227,38.71509537854015,-11.392636523658302,1.107010940303233,-0.0875927815105356,-1.3868857072501497,-0.16357421875,-0.956298828125,-0.267578125,440,764,809,1023,1021
K,-55.67856382745828,55.43868058833738,-29.412964873367816,-1.9522547356516824,-3.163768730562624,-0.733142493638677,-0.923095703125,-0.246337890625,-0.2744140625,517,655,814,1022,1023
B,-3.298417735569465,1.5852591034933976,-0.3261179333920729,-0.7804722172909642,0.2732469376886195,0.0031954553523874,-0.409423828125,-0.660400390625,0.44189453125,824,286,376,466,147
M,-60.742921659434806,60.573537053785245,-31.25099387800365,-1.1437305626236918,-1.2112312694373764,0.7020073508623125,-0.9287109375,-0.189697265625,-0.02734375,1016,1021,1023,907,1023
B,-4.577429463654583,2.690266450183324,-0.2052956182205139,-1.6430676371382924,1.4030179300550318,0.0871649210012424,-0.397216796875,-0.66796875,0.444580078125,820,289,379,463,145
A,-0.0860369686766236,0.237860013696343,-0.0061122006468312,-0.6607098884862979,-1.1025785344918562,-0.7438350863615586,-0.916015625,-0.273681640625,-0.14013671875,615,1023,1022,1023,1021
U,-60.616796485228384,77.09188193475616,-29.663452246072968,-0.0212122278115878,1.0180462236606045,-0.0350722904281138,-0.92822265625,-0.177490234375,-0.014404296875,808,708,1023,1023,1023
G,-18.300394381024592,38.68163183796827,-6.249902993837977,1.7276181095437435,-0.7244169275688607,0.5308333626481867,-0.230224609375,-0.926513671875,-0.43798828125,643,901,1023,1022,1023
N,-66.53241263761166,67.68286365314674,-35.628578910054834,-1.3275055405072642,-2.4106659162064235,-1.0848489112463504,-0.9287109375,-0.2060546875,-0.0703125,1022,1021,1022,1022,1021
A,-1.4818515333583109,4.145403792948606,-0.0002731395351361,-1.3037956871987897,-0.9798782847293068,-0.4084848911246348,-0.904296875,-0.32666015625,-0.1142578125,535,1023,1023,1022,1023
Z,-125.42317629734356,76.08562169966355,-93.87538146005706,15.613266892847044,10.168787107718405,5.181509754028839,-0.72705078125,-0.632568359375,-0.0654296875,740,718,1023,1023,1023
M,-60.75684490212832,60.60016987571514,-31.235969218447067,-2.1360969748374323,-1.7303152389030252,0.4729997172745261,-0.92822265625,-0.18701171875,-0.035400390625,1017,1023,1022,909,1021
C,-6.201927283763357,15.80198338208248,-0.5686093063315452,0.1829950399268302,0.9126182854328632,0.7245576388644601,-0.81103515625,-0.4091796875,0.145263671875,575,962,876,896,366
P,-76.79046948219336,64.06853195443377,-45.31577595813057,-0.5954198473282442,0.195659056530763,-0.052098357195624,0.513671875,-0.34814453125,0.655029296875,742,620,1021,1022,907
L,-49.92070882965861,51.08420036748539,-26.921613990732816,-0.8178844056706652,-1.605762127554789,-0.0557216730573049,-0.883544921875,-0.190673828125,0.188720703125,895,1023,1023,1023,1022
D,-7.862784790125417,19.74579522620036,-0.975363308947952,0.5349843458683641,0.4561508425088821,0.6158229851901358,-0.93896484375,-0.184326171875,-0.039306640625,685,659,1022,1021,915
M,-61.16114234900342,61.78208169583012,-31.425248270775644,-0.34150631441939,0.4677243465719211,0.073345762831112,-0.928466796875,-0.141845703125,0.01318359375,1023,1023,1001,963,1023
R,-60.91341359428616,64.0956939653648,-30.67760567476984,-0.618709358213175,-1.1948685326547923,-0.1853618886061636,-0.84326171875,-0.206787109375,0.25244140625,570,632,1022,1023,905
K,-52.74288494677417,55.41384959710516,-29.27450456741094,-3.463705117331071,-4.415677127509189,-2.2064249363867687,-0.90185546875,-0.260986328125,-0.28662109375,525,671,846,1023,1022
L,-51.475739408420594,54.46660976566547,-28.69916629529118,-0.5828261863721109,1.4745488444084858,0.1755021634361702,-0.882568359375,-0.30908203125,0.071044921875,841,1022,1023,1021,1023
K,-58.30952791453075,57.05077038891797,-31.21648789904967,-1.734372251732508,-0.0238153867801738,0.1810250817884404,-0.924072265625,-0.21533203125,-0.289306640625,533,657,638,1023,1023
Y,-112.63997267843634,76.46213728062354,-78.82759274190076,-1.1556403731976252,0.8570115917444161,-0.4547992649137677,-0.96484375,-0.145263671875,-0.2001953125,918,1021,1021,1022,859
E,-9.294177769189671,26.896166223606475,-1.17997497756969,-0.7058782143736585,0.7659267597706405,-0.1879199352728036,-0.9375,-0.203125,-0.05078125,1022,1023,1023,1022,901
K,-54.69109212708434,55.47461381515198,-29.24503791361685,-3.3186669493921404,-3.1027000282725474,0.1141857506361322,-0.913818359375,-0.24072265625,-0.273681640625,519,658,823,1023,1023
R,-62.32915797154716,63.62918169617996,-32.0822245498101,-1.9164192818772967,-1.07273112807464,0.9596762793327676,-0.852294921875,-0.198486328125,0.24609375,578,641,1023,1022,908
X,-103.89916956961092,77.15867809735423,-71.06956995479155,-1.2391857506361323,0.4985156912637826,-0.2139525021204414,-0.8310546875,-0.33544921875,0.17822265625,735,1021,1023,1023,1023
H,-47.69440083976001,48.781881840842686,-24.718195783842912,1.2911668484187575,0.3841770148098639,-0.2767087627959337,-0.22119140625,-0.946044921875,-0.37353515625,458,804,657,1023,1023
S,-60.56371227795879,64.71284403473206,-30.24381786211003,-2.0382382945790978,0.0520280015478243,-0.5166918774404616,-0.955078125,-0.10107421875,-0.057373046875,1018,1023,1023,1021,1023
P,-70.21473374732429,60.23931950993799,-39.44447803897297,0.5302869663556686,-2.6982258976533795,-0.2807817359344076,0.416015625,-0.266845703125,0.726806640625,682,537,845,783,727
P,-80.25006951400964,65.58996341448702,-48.96595395737053,-0.727558665535765,0.4840613514277634,0.8985015549901041,0.3154296875,-0.446044921875,0.687255859375,768,693,1023,1023,884
R,-67.12407426838453,60.06356658683503,-36.36747861341096,1.3539016115351994,1.6513994910941483,0.0648501554990098,-0.87109375,-0.185302734375,0.198486328125,405,655,1021,1021,1023
G,-13.248691909713369,37.32140103838779,-3.228010724519005,-0.8735357230801704,-0.12266507193865,0.194814788757167,-0.21875,-0.938720703125,-0.381591796875,390,758,1023,1023,1023
H,-25.30116535277672,38.73347099678398,-10.6889633027245,-0.7937524184753926,-1.6448446899074822,-0.9059696767157982,-0.174560546875,-0.962890625,-0.2666015625,444,766,811,1023,1023
V,-76.23977023598815,78.45795101255048,-44.704239723213085,-0.951665669961656,-0.7948781088401871,1.500369367150948,-0.933349609375,-0.19189453125,-0.028076171875,799,655,1023,1022,971
C,-5.611843485688049,14.591523609938228,-0.5090671304590882,-1.0689837126675346,-0.4921377563583916,-0.755408590424596,-0.813720703125,-0.37890625,0.150146484375,552,965,843,797,357
K,-56.532485145951824,55.809429241145054,-29.964908363636816,-0.5817004960073171,-0.0314489745664333,-0.3075245365321701,-0.930419921875,-0.226318359375,-0.2890625,540,655,649,1021,1023
O,-70.36072703411818,68.09558288934188,-39.195219455789854,0.0424596334470745,0.4225208428606605,0.0628979491328656,-0.818359375,-0.501220703125,-0.0947265625,721,1023,1022,1021,819
B,-0.8010316136635316,0.212824457759412,-0.1875667180966742,-1.8738317757009344,-2.7022187343939525,-1.512556181779268,-0.556640625,-0.46875,0.494140625,834,386,569,455,246
E,-10.154125496277617,29.10969786914329,-1.4759081651614052,-0.0709184929820241,1.2768142962676328,0.6152601400077391,-0.9189453125,-0.247314453125,-0.037353515625,1022,1022,1021,1022,901
F,-11.983492276664723,33.49912720706258,-2.4906042680588154,-0.4867555493017205,1.1504555528195026,0.4273753825588354,-0.945556640625,-0.135498046875,-0.06591796875,736,1023,1022,1022,482
P,-81.24747747332941,66.00988468942774,-49.863075275189466,0.3335100367543113,-0.9739539157478092,0.013005371783997,0.3095703125,-0.458251953125,0.695068359375,768,696,1023,1022,884
B,-0.1021097114122841,0.0609548016767019,0.001031444081485,2.019297995291432,-1.694585146607693,-0.2911821359777414,-0.5498046875,-0.458984375,0.512451171875,846,396,596,460,246
K,-58.6033223166438,57.22732096614174,-31.44684748280337,2.036620114679706,-0.2986245470855173,1.3107960741548528,-0.92431640625,-0.226318359375,-0.28369140625,534,652,637,1023,1023
V,-82.42423578505635,78.53707027462801,-50.72722277456306,0.4592464910120657,-2.485067013754529,0.1979456150842511,-0.9404296875,-0.18212890625,-0.041259765625,767,704,1023,1023,977
W,-90.9890117492426,78.41005996448956,-58.99539302748139,-1.027790480880853,-0.2665423716888873,-0.9798782847293062,-0.92822265625,-0.204345703125,-0.120361328125,898,635,1023,1023,1023
F,-12.668128347944302,35.424536234166816,-2.804784460862846,-0.1331480634607941,-0.5269286241953072,-0.3503359482182433,-0.94677734375,-0.156494140625,-0.04736328125,531,1023,1022,1022,441
W,-99.02329792698242,77.70462328332202,-66.7937086631961,0.0485453969817427,-0.3581454251240018,0.1880606465684036,-0.92724609375,-0.22216796875,-0.107177734375,872,590,1023,1022,1022
K,-58.697487588152434,57.25766424474229,-31.513000035861506,-2.7878073662363247,-0.3444260738030745,-2.47546346782988,-0.92431640625,-0.210205078125,-0.302490234375,534,654,635,1023,1023
T,-66.51338925573405,71.83859960057659,-35.5697407464179,0.0860097794350439,1.0569528968937982,1.1497519963415057,-0.932861328125,-0.177978515625,-0.01611328125,801,1023,1021,1023,1023
D,-8.353752519380459,23.12123272945581,-0.9106770841164572,-0.404933559513712,-0.5132527565733672,0.5143483177834327,-0.93359375,-0.148193359375,-0.0517578125,683,704,988,1021,744
T,-64.68055002097385,70.25528761568638,-33.7207308512103,0.551658634396876,0.5913040419319662,1.3940268055018108,-0.927978515625,-0.1767578125,-0.013671875,806,1023,1023,1021,1023
J,-36.24171104722113,43.3888737508764,-16.163769489636618,-0.1572307039864292,-2.0841108283856378,-0.0755583828102919,-0.842041015625,-0.4521484375,-0.2666015625,913,1022,1016,1022,1022
B,-3.2532530998404168,6.574780902355255,-0.0883297331311526,0.5735392408625601,0.6158581630140362,1.7491469377704298,-0.94873046875,-0.13720703125,-0.12060546875,1023,1021,1022,1023,377
Q,-74.42989142070077,63.05598969727854,-42.77506599328105,-0.8503183593062932,-0.2412143384810217,0.4821472543708444,0.643798828125,-0.235595703125,0.5703125,936,741,1023,1023,1023
O,-82.11691300960129,66.3933539008702,-50.59268889402084,-0.4355366377035916,0.1542547578006824,-0.3433707390860794,-0.83349609375,-0.504638671875,-0.11474609375,772,1023,1021,1022,825
T,-65.17533528192259,70.78814268095277,-34.23003044057635,0.4905899321067997,-0.4697646603581102,1.271889400921658,-0.937744140625,-0.177978515625,-0.01123046875,813,1023,1021,1023,1023
T,-67.51838033198047,72.50136140638772,-36.55673091221102,-0.4559749533893835,-0.1644211489077285,0.7299046680972308,-0.930908203125,-0.1923828125,-0.027587890625,801,1023,1021,1021,1021
A,-0.2082437376280871,0.6309917454051216,-0.0223420927085584,-1.141625919020649,-0.9041052520491084,-2.820170964224154,-0.914306640625,-0.275390625,-0.11865234375,613,1022,1021,1022,1022
Y,-106.902619308455,76.51587104665985,-73.05537305417545,1.1220670489323532,-0.2374854891476413,0.367573081929152,-0.94580078125,-0.210205078125,-0.22607421875,848,1023,1023,1023,784
M,-59.45084410216584,57.8755455756338,-32.02578475432158,-1.4109061351427756,-0.5929106587503534,0.9539157478088772,-0.923828125,-0.207763671875,-0.027587890625,1023,1022,1021,912,1023
L,-50.853639917742754,53.64026103781696,-28.077593733632035,1.6309142716431562,0.2989763253245162,0.7861891863369335,-0.867431640625,-0.31787109375,0.04833984375,859,1023,1023,1022,1023
P,-81.77914621092569,66.19001343814847,-50.33264417983693,0.2419069833191968,0.9802445575346336,0.2801809443030811,0.3193359375,-0.449462890625,0.68505859375,768,694,1023,1022,884
L,-50.89053206076618,53.65970032566934,-28.099852867976743,-1.132444506982798,-0.3651458120800639,-0.8932001266401659,-0.89990234375,-0.30615234375,0.072021484375,860,1023,1022,1023,1023
P,-79.68858197076493,65.35960097377797,-48.476912018438014,-0.1855739327113374,0.0413132598247099,0.9214023183488826,0.31982421875,-0.450927734375,0.690673828125,768,694,1021,1021,886
F,-11.29516118929987,31.55046931005774,-2.040411071672741,-0.929503640904774,-2.399162767791185,-1.0077391212579585,-0.94287109375,-0.140625,-0.0732421875,743,1023,1023,1023,484
P,-77.52651717703652,64.50430264929435,-46.25785073772415,-0.6183206106870227,-1.25472262285855,0.230344390895979,0.501953125,-0.33154296875,0.64892578125,745,624,1022,1021,909
H,-47.59822134534377,48.79318574038021,-24.60104833028229,0.5430752453653225,-0.1883420691596017,-0.070601892566926,-0.2197265625,-0.94189453125,-0.359375,460,808,654,1023,1023
C,-4.738772654945085,12.744646203370792,-0.3249654061885428,0.1065888064164348,0.4544271291377916,0.2369578217891444,-0.830322265625,-0.3720703125,0.1650390625,561,969,841,788,354
C,-6.228366660948892,15.84113057862375,-0.5794258054034713,-0.7254019066380551,0.7294121785626342,-0.5044499947233263,-0.806640625,-0.395263671875,0.143310546875,573,959,869,895,367
U,-68.40841156029377,75.8699645719421,-37.51097002470811,1.604038414183699,0.0647623737995569,-0.0651141520385549,-0.888427734375,-0.12841796875,0.119873046875,709,890,1023,1023,1021
L,-50.62817517263144,48.56493443134958,-27.388091002351857,4.968375136314068,2.9362226052696383,2.8984768002251378,-0.888671875,-0.2138671875,0.200439453125,977,1022,1023,1023,1023
I,-31.35957639073719,39.65447402317258,-13.367030662125298,2.7027141645462254,3.661471586089907,-0.1570540005654511,-0.907470703125,-0.296875,-0.03466796875,539,830,929,1023,559
U,-65.3499621958008,76.3878455860893,-34.464279048943936,-1.3272592957399652,-0.9734055651317408,0.2096950082667885,-0.91845703125,-0.113525390625,0.10986328125,703,871,1022,1023,1021
R,-62.39485443011198,63.60184261304138,-32.16445010520891,-1.8171826406559235,-0.935326547921968,-0.0708580718122705,-0.847900390625,-0.215087890625,0.236083984375,572,638,1023,1023,907
E,-9.768033644520242,28.2647825958462,-1.3942651830026511,1.2712210222675626,-0.7378900341224892,1.8273472402997155,-0.930419921875,-0.221923828125,-0.048095703125,1023,1021,1023,1023,903
V,-80.86723747058181,78.46498953207184,-49.17919128713337,-0.6323565624230488,-0.0270517465789565,-0.916558201709642,-0.9287109375,-0.1884765625,-0.029052734375,777,710,1023,1023,986
D,-8.366096285882028,23.304018429326003,-0.9205488022458592,-0.2140938648572234,-0.665924512298558,-0.0276364150409949,-0.9638671875,-0.154296875,-0.040283203125,683,702,989,1023,742
M,-61.1629513921251,61.812882143659415,-31.428872173743205,0.4905547542829001,-0.5551764167868575,-0.0029901150314832,-0.9443359375,-0.14794921875,-0.003173828125,1023,1023,1004,970,1023
G,-14.010520088221536,37.53051022016684,-3.631737174788736,0.4928764906602877,0.1674112639392126,0.0268758574594571,-0.2041015625,-0.93603515625,-0.365478515625,381,757,1023,1022,1023
O,-69.11152113317188,68.23901104188856,-37.959044928853885,-0.0949449467055971,1.498856720723256,0.9178597811939344,-0.822265625,-0.525390625,-0.090576171875,721,1021,1023,1023,822
K,-56.73674072131671,55.98911481518912,-30.10007974051848,-1.5129982059309814,0.6479403384106659,1.1123227917121046,-0.92138671875,-0.22900390625,-0.28466796875,541,652,648,1017,1022
Q,-72.76437464495264,61.8147027573177,-41.352906329450015,1.0406655644281844,-1.324972737186478,-1.2397016920533288,0.787841796875,-0.236083984375,0.4365234375,770,613,1023,1023,989
U,-65.63625706320647,77.92546856354167,-34.544310214019355,-1.738769479719985,1.659267597706406,-0.8747669469166636,-0.93359375,-0.175048828125,0.002685546875,802,689,1023,1023,1023
P,-78.48456372009369,64.90687865617517,-47.29555709171644,-0.4274809160305342,0.2032926443170225,-0.418510570936082,0.500732421875,-0.333251953125,0.65771484375,741,628,1023,1022,908
G,-16.151322309647274,38.18192389449709,-4.869331421412933,0.5234108418053259,0.1979456150842507,-0.2784676539909245,-0.2080078125,-0.94482421875,-0.363037109375,378,750,1023,1023,1023
X,-105.35589504265928,77.37986382333955,-72.52860875593875,-1.7353689567430026,0.3687446988973704,0.412001696352841,-0.83984375,-0.357177734375,0.17236328125,734,1021,1023,1022,1023
Z,-131.95108628058722,71.46174597341874,-113.46306330113693,-0.2966897667710276,-1.2369929996130438,-1.3461497871741652,-0.677734375,-0.691162109375,-0.105712890625,850,751,1023,1023,1023
F,-11.27533158374489,31.54195747037944,-2.0304740075298864,-0.112709747775003,0.7306082245752277,-0.4199528617159738,-0.952392578125,-0.14453125,-0.079833984375,744,1021,1023,1023,483
Y,-103.33854758589597,76.70520247599147,-69.67333618374776,1.427410560382735,1.655644281844725,1.5584127765856406,-0.96826171875,-0.21630859375,-0.23681640625,843,1023,1023,1023,814
B,-4.29877680256609,2.4610855114721786,-0.2243001892738124,-0.8110065684360023,0.5404225102077036,-0.0807740102964675,-0.401611328125,-0.640869140625,0.447265625,817,288,377,464,145
K,-46.522226248975336,49.00820185970145,-23.757073466515468,-0.5204207267738419,1.240581137650825,-1.088155626692932,-0.55224609375,-0.61083984375,-0.703857421875,426,677,689,1023,1022
E,-10.56478582679554,30.07268667926425,-1.6578144256209648,0.7993105146515637,-0.1888345586941991,0.2030463995497239,-0.92236328125,-0.22607421875,-0.047119140625,1022,1021,1021,1021,898
W,-100.37007301342264,77.60405754683482,-68.04563540255351,-1.3495268582685478,-2.5238681535160232,-0.785942941569635,-0.944580078125,-0.1708984375,-0.128662109375,933,538,1023,1023,1023
W,-100.60211789440176,77.60959329629189,-68.26614807494482,-0.7388398353677845,-0.531501741302283,-0.0531185140887189,-0.94873046875,-0.167724609375,-0.12353515625,932,535,1022,1022,1022
D,-8.773647735536896,24.731657151704766,-1.0328538048165588,-1.9698190556969184,-0.5285199321458863,1.2013712185467915,-0.935546875,-0.151611328125,-0.064453125,683,706,996,1023,741
Z,-129.05217298443011,75.4769898299419,-100.00855455684362,15.117083686740171,9.642069550466497,6.097540288379983,-0.723388671875,-0.631591796875,-0.066162109375,738,717,1023,1023,1023
N,-65.63774465968305,67.4520645778405,-35.008286447202174,-0.8694902733316919,-0.601505610862912,-0.5428641784219229,-0.928955078125,-0.199951171875,-0.059326171875,1023,1023,1023,1023,1021
A,-2.9465476011764005,5.6039419137249205,-0.1486709206210293,-0.4946353818552782,-1.3691912618285436,0.1869349562036094,-0.904052734375,-0.325439453125,-0.10400390625,542,1023,1023,1022,1021
Y,-103.5738727357374,76.7277539958005,-69.8960739079133,-0.0153375312203186,-2.9855770922010767,0.8103211735322056,-0.93701171875,-0.21533203125,-0.24462890625,845,1022,1022,1023,805
K,-42.55508193641152,47.504849484990295,-20.57965143381192,-2.787596299292926,-0.5533119921201675,-1.6759418862349167,-0.545654296875,-0.6171875,-0.75,437,693,697,1023,1023
E,-9.570438460604237,27.68285640862184,-1.3416622503717726,-0.8127484433812923,-0.6462869806873748,-0.91311077496746,-0.937255859375,-0.201904296875,-0.037109375,1023,1022,1023,1023,904
B,-0.2666465132198154,0.137800274879486,-0.0484261683028503,1.5460155525433406,-1.0991652992794487,-0.1995790825426269,-0.552490234375,-0.464111328125,0.486328125,843,400,593,456,246
I,-30.244804916838177,40.4601574982148,-13.449414435838312,-14.755301102629348,-22.99501696352841,-23.79064178682499,-0.94140625,-0.21533203125,-0.06689453125,746,1022,930,1023,766
R,-65.9845551804051,62.13212695377212,-35.566230664861095,2.1859626802374894,0.6132315521628506,0.0419493921402311,-0.87353515625,-0.193115234375,0.18212890625,404,636,1023,1022,1023
P,-68.65785531184686,59.49290237493629,-37.78820746455767,-0.958262651964942,-3.01883658467628,0.0016610121571953,0.431884765625,-0.283935546875,0.7158203125,657,536,832,776,727
S,-64.0065398768566,69.46208928350539,-33.13675462513301,-1.2465613677137934,-0.3807647658915818,-0.0331726879375231,-0.950927734375,-0.0751953125,-0.06396484375,993,1023,1023,1022,1022
V,-71.4963681304618,78.37476902415958,-40.15373542886434,0.1170366201146798,-1.5277025363211032,-1.247722235902487,-0.928955078125,-0.196044921875,-0.01171875,806,665,1023,1023,973
T,-69.26215409895126,74.17983653397404,-38.35840426636335,0.1054566016398075,0.867295730845349,-0.1628498727735372,-0.940185546875,-0.14111328125,-0.020751953125,850,1023,1022,1023,1023
P,-81.8805262745941,66.21576064994218,-50.414892094338725,0.4785482046932426,0.2474201300537176,-1.1396663839411938,0.314208984375,-0.451416015625,0.6943359375,775,689,1023,1021,884
C,-5.67027034813981,14.70607169755508,-0.5179487839714874,-0.4735638653392904,0.9200759840996235,0.7636753790410529,-0.828369140625,-0.372314453125,0.142333984375,553,963,842,798,359
E,-8.919743778040788,25.55611525701654,-1.0364998993168095,-0.3394660006332005,-1.8523938509163824,-0.3482252787842541,-0.930908203125,-0.201171875,-0.036865234375,1023,1023,1023,1023,905
Z,-131.72489408643025,71.41782104533853,-113.25106671762302,-0.5791325148626306,-1.267527350758082,-0.3385161993879055,-0.659912109375,-0.7060546875,-0.10595703125,850,753,1022,1022,1022
R,-60.438782928451566,64.21833836207816,-30.168355662787185,-1.3591673734803509,-1.4238761662425787,-0.6510107435679957,-0.84619140625,-0.209228515625,0.24755859375,569,634,1023,1022,906
B,-5.4288021211615405,3.5641670612805694,-0.0358416348591551,-0.0705485531688267,1.8228652582993063,0.6673175927569677,-0.405517578125,-0.64794921875,0.4404296875,815,287,376,461,147
J,-37.14353313377431,44.25946179804139,-16.535472621865445,-0.1953986429177269,1.2288662708510036,1.641998869098105,-0.83984375,-0.458984375,-0.235595703125,898,1023,1019,1022,1021
W,-107.87674181398329,77.85030111813175,-75.23733494661984,-0.2273894536883951,0.1097196327435185,0.0537517149189146,-0.948486328125,-0.17822265625,-0.112060546875,910,527,1021,1022,1023
K,-41.53288772479871,47.0096203764021,-19.87803859574492,0.9932145886344366,-4.599448685326547,1.053576477240599,-0.601806640625,-0.5703125,-0.7119140625,514,612,655,1023,1021
L,-50.224106250117686,50.18720127461883,-27.101854487214126,-1.6194111232279167,0.9362226052696384,-2.2541949555000533,-0.87060546875,-0.165283203125,0.19677734375,927,1021,1023,1022,1021
N,-64.70689354290515,67.07075296005902,-34.21060080225926,-0.5641467618813102,-1.685475076511767,-1.5581313539944417,-0.932373046875,-0.192138671875,-0.05712890625,1022,1021,1023,1020,1021
R,-66.56716040826558,61.23179557832614,-35.98634864696726,-0.073579304495335,0.4376590330788812,0.3243921402318342,-0.872314453125,-0.185546875,0.191650390625,402,648,1022,1022,1021
K,-43.14278209863852,47.63753639435226,-20.987451737603365,-1.184542864178422,0.8436345727653287,0.5683329229253884,-0.550537109375,-0.607177734375,-0.712890625,435,689,690,1021,1023
O,-69.81947816948015,68.12895519565973,-38.65394595912823,-0.781967847468956,1.2087803848453933,0.0857987124916443,-0.808837890625,-0.52099609375,-0.085693359375,721,1023,1023,1023,821
I,-29.67972578917357,41.25994581706775,-13.28058671697626,-7.961407972858354,-17.804177268871925,-7.928046366977665,-1.02734375,-0.202880859375,-0.132568359375,554,1023,1023,1023,795
G,-17.82150611052977,38.58112460375456,-5.9455115780631385,1.12456467442924,-0.8923558588665707,0.156787561121469,-0.23095703125,-0.90966796875,-0.45849609375,645,901,1022,1022,1021
T,-67.55239793369283,72.54030394533707,-36.60148448891571,1.3608189397403874,0.3012277060541035,1.310057339852956,-0.92822265625,-0.177734375,-0.014892578125,800,1023,1023,1023,1023
O,-74.22217650005848,67.68713928913338,-43.10723769911069,0.218032152531044,1.4530551940056986,-0.3111478523938518,-0.814697265625,-0.51171875,-0.091064453125,715,1022,1023,1023,816
G,-19.97436663213318,38.7051887033141,-7.230389351573383,-0.058641432440989,-0.3809054771871813,-0.2172582404052485,-0.2265625,-0.91064453125,-0.43603515625,638,903,1023,1022,1022
T,-68.98667839856115,73.99616209402022,-38.09000820318877,-0.619734238054849,-1.117437093582132,-0.3918575063613234,-0.940185546875,-0.12841796875,-0.005859375,854,1021,1023,1022,1022
Y,-118.95062026293344,76.60710874997277,-85.10287922122833,-0.8884648006785413,-1.2956601639807748,-1.187623692394684,-0.946533203125,-0.1572265625,-0.19970703125,919,1023,1023,1023,851
I,-27.298784428149546,41.35133841983165,-11.874040242841646,-2.226580363738699,-0.2315052590846729,-0.3809758328349809,-0.959716796875,-0.06787109375,-0.12353515625,875,1023,991,1023,1023
X,-105.13067780418082,77.36132368791638,-72.30386580418494,-0.1628498727735368,-0.1045377438507213,-0.1605173876166247,-0.83984375,-0.348876953125,0.18603515625,734,1022,1022,1023,1023
N,-62.03829012608468,64.0281007122102,-32.30208638302802,-0.2342380548487418,0.821070115917444,0.0406771275091888,-0.947509765625,-0.122802734375,0.000244140625,1021,1021,999,1021,1023
Q,-75.3671982776761,63.51499906830696,-43.83211149670458,-0.5984099623597283,-5.798466246877968,-1.1056390051711404,0.64306640625,-0.2421875,0.59130859375,939,745,1021,1023,1021
H,-47.10807016754456,48.89440451644764,-24.264825021979547,0.5507088331515819,0.0788335033594822,-0.1622049460020405,-0.2236328125,-0.937744140625,-0.366943359375,458,805,654,1023,1023
J,-33.96099997467146,41.48130599970022,-14.870734706885154,-0.217415889171614,-1.0506785411365565,-0.0475685609273394,-0.824462890625,-0.539794921875,-0.163330078125,923,1023,1007,1023,1022
I,-27.47217313025432,41.67959963260026,-11.967628270753185,0.1301950805767599,0.0813189143341815,-0.6685043822448405,-0.94970703125,-0.1103515625,-0.185791015625,902,1022,1021,1022,767
B,-4.142008021051776,10.514699795520327,-0.1514677501867464,1.816864248777571,2.194005698807472,0.402434305413868,-0.941162109375,-0.169921875,-0.09130859375,1003,1000,1023,1022,367
S,-60.905126887176856,65.13303353577533,-30.560380952645165,-1.1909100503042886,-0.474689555704084,-0.4632567629366448,-0.950439453125,-0.10693359375,-0.063720703125,1015,1023,1023,1023,1023
K,-44.29230446544093,48.11791079300741,-22.01518773965221,-1.5967566046364372,0.7901994582615119,0.8278749076582128,-0.544677734375,-0.61181640625,-0.70361328125,429,679,691,1023,1021
C,-7.182480851914124,17.86995805094503,-0.7736947087316131,0.6562774826749218,-0.1102824779259154,0.0604355014598798,-0.810546875,-0.401611328125,0.14404296875,573,958,863,891,367
X,-106.25585535243628,77.47264536479769,-73.44279046853715,-0.2697201017811704,0.4450805767599658,0.5417726887192532,-0.84619140625,-0.334228515625,0.160400390625,737,1023,1023,1023,1021
P,-72.44440435686484,61.60554643767523,-41.10430300425688,0.2658679672038453,-0.1960701159174441,-0.5558029403449252,0.39599609375,-0.279052734375,0.723876953125,763,453,857,852,741
K,-43.46482985826694,47.775218141518174,-21.246534093042737,0.5864495022337917,0.7520315193302141,0.1713863580398922,-0.546142578125,-0.609130859375,-0.718017578125,431,685,686,1023,1023
W,-92.44691099402398,78.31258345164136,-60.42414188246952,0.3462553206458649,-0.5947866464980477,-0.2317866816758711,-0.93603515625,-0.215087890625,-0.101318359375,902,617,1021,1022,1023
W,-96.1172541773714,78.03655330785755,-64.01524093207173,-0.0277904808808526,-1.373412600696521,-0.185985154958314,-0.934326171875,-0.21875,-0.095703125,879,593,1023,1023,1023
V,-84.28784192525384,78.57184261412442,-52.53226995969082,-0.0293031273085448,0.1943222992225701,0.3048158440918848,-0.922607421875,-0.157958984375,-0.038818359375,764,705,1021,1023,977
Y,-111.72892977743705,76.44361141556826,-77.94557183301309,-0.2701441899915185,0.6051031947978512,0.0795518801244001,-0.9541015625,-0.148681640625,-0.205322265625,921,1023,1023,1021,860
P,-70.02365205108025,60.171646337729086,-39.25791653334702,-0.4162779191405146,-0.0341037602487991,0.1848671190274244,0.42578125,-0.259765625,0.717041015625,674,541,842,781,725
P,-80.41279652118317,65.67874207081907,-49.11643140944637,-0.3077113372914902,-0.325098953915748,0.2038450664404857,0.2998046875,-0.44775390625,0.676025390625,767,693,1023,1023,884
W,-98.62710640275598,77.74534865786566,-66.40418590851255,-1.7606149083617688,-2.129137791536216,-0.2317866816758711,-0.945556640625,-0.2255859375,-0.099609375,865,587,1023,1023,1022
F,-11.396133692603703,31.84755501876649,-2.129309404067598,0.3147711682555313,-0.2159566609209555,-0.9237696556091036,-0.95361328125,-0.155517578125,-0.068359375,741,1023,1021,1023,483
B,-3.2204603146116533,6.341709118009623,-0.1078725600880255,-0.2279874766946917,1.0891406057621278,0.1002919759383687,-0.944580078125,-0.110595703125,-0.116455078125,1022,1023,1023,1023,374
B,-3.128755969201689,5.966346693947896,-0.1399745998785136,-0.4493615224962184,-0.5749815316424524,0.8712843423505825,-0.95849609375,-0.131591796875,-0.130615234375,1022,1021,1021,1021,374
K,-41.700087940764426,47.07662024583341,-20.002039636356997,-0.5029686174724337,-1.2483036471586084,0.3436528131184615,-0.61474609375,-0.56982421875,-0.674072265625,511,609,652,1021,1022
X,-101.78260592170768,76.7830600535822,-68.68458128135393,-2.578314956177551,2.45024031665253,2.09584393553859,-0.78564453125,-0.396240234375,0.25634765625,979,977,1023,1023,983
W,-104.66830194555222,77.75407559994824,-72.11176712671299,0.7420761951665668,-0.7757765504625883,0.1835227072853269,-0.946533203125,-0.17236328125,-0.12353515625,913,528,1022,1023,1020
P,-69.45409809345216,59.90844974938621,-38.6571587916685,-0.5613160870794459,0.6910870794458575,1.4673098671190274,0.437255859375,-0.259033203125,0.721923828125,669,536,835,777,728
P,-70.81308693348912,60.54206308114088,-39.90319857656602,1.471974837432853,-1.2953067571388182,-0.8687800395815664,0.390869140625,-0.287109375,0.722412109375,765,447,860,847,737
M,-59.56781417262259,58.0580972102828,-32.016809916012626,-2.143730562623692,0.3078527000282725,1.4806333050607856,-0.931396484375,-0.201416015625,-0.01513671875,1023,1023,1023,911,1022
G,-21.134972129078623,38.9379907193832,-7.9231716550792735,0.5596791782460339,1.6572624617441165,0.2254898511978049,-0.22265625,-0.911376953125,-0.43603515625,638,899,1021,1022,1022
B,-1.6147953214504078,0.4037099114897572,-0.3480891091028278,1.2025041021616611,-3.3358065206534944,0.166833131197831,-0.54833984375,-0.470703125,0.488037109375,834,374,550,448,247
O,-78.0888793564766,67.14845547956206,-46.876335447903365,-1.5195061033524464,-0.6014704330390122,0.2749498716009435,-0.82177734375,-0.493896484375,-0.1162109375,772,1022,1023,1021,827
Y,-113.7409683778788,76.51479094738637,-79.87904549313862,-1.125106022052587,0.2539581566299123,0.3314602770709649,-0.9482421875,-0.142333984375,-0.201416015625,915,1023,1020,1023,853
F,-11.604298239117982,32.471779368408896,-2.2991820818919475,-0.6699616561719497,0.2038906673233192,-0.0917085869068133,-0.948486328125,-0.153564453125,-0.0927734375,741,1022,1022,1023,483
A,-2.896593453360032,5.562753405180057,-0.1456884344192092,-1.2045590459774156,-0.2775882083934289,0.0189960249058994,-0.895751953125,-0.348876953125,-0.102783203125,542,1023,1022,1023,1023
Y,-115.56410349971226,76.54887413073241,-81.72263780758506,-0.1480067854113658,-0.1124540571105457,0.4077961549335605,-0.94921875,-0.151611328125,-0.2109375,918,1021,1023,1023,854
W,-93.39060445709327,78.19458985581767,-61.33859920411,1.2012171527069335,-1.3505118373377425,0.9895873641256556,-0.934326171875,-0.226318359375,-0.077392578125,897,603,1023,1023,1023
O,-77.58332930984784,67.20219983110627,-46.37653576297958,-0.0309564850318359,-0.0671192880008442,0.3054842227459816,-0.82568359375,-0.499267578125,-0.109619140625,772,1022,1023,1021,829
L,-51.1241107406597,53.96368095079757,-28.345166141280902,-0.3843529039293629,1.4821824321947452,0.5800823161079258,-0.892333984375,-0.30078125,0.077880859375,851,1022,1023,1020,1023
I,-27.00332761807667,40.777392426786925,-11.778358771170748,-0.1884124248074014,-0.2162380835121538,0.4281844725085305,-0.958984375,-0.06884765625,-0.125244140625,868,1021,984,1022,1007
F,-11.93213826833991,33.30965727828222,-2.4694053163286,-0.5172899004467588,-0.4525978822950013,0.2747036268336446,-0.93408203125,-0.151611328125,-0.065673828125,738,1023,1021,1022,481
T,-67.66549620654308,72.59698037635486,-36.71694558957028,0.2310479473739752,0.7821437365884547,0.1802863474865437,-0.93798828125,-0.189697265625,-0.007080078125,799,1023,1023,1023,1023
K,-42.03652184490047,47.323651350128245,-20.26147532087061,-0.7167090754877008,-0.6223494486853258,0.1986146451795303,-0.603271484375,-0.582763671875,-0.6845703125,506,610,649,1021,1023
F,-12.539019773947976,35.14631985173345,-2.735758946578638,-0.9270411932317864,1.4120026735146165,0.1000457311710697,-0.94921875,-0.149658203125,-0.045654296875,538,1022,1022,1023,441
X,-108.60219896272424,77.85469360162931,-75.89330777584364,-0.559796437659033,0.3382103477523321,-0.3284563189143344,-0.835205078125,-0.3310546875,0.161376953125,738,1023,1021,1023,1021
B,-4.96586819097817,3.12474971202343,-0.1267415391408358,-1.0247470264512697,1.76179655600923,1.613882478253151,-0.402099609375,-0.668212890625,0.4462890625,817,289,378,462,146
L,-50.62577189183477,48.96369654857144,-27.380835208720757,2.4187568157033805,1.623245506032997,1.3717592429732297,-0.881591796875,-0.19287109375,0.200439453125,963,1021,1021,1023,1023
S,-62.8149689934738,67.99018499961511,-32.19576156257423,0.2267210750342982,-0.8769479719984521,0.3179723502304158,-0.95263671875,-0.07568359375,-0.0791015625,1008,1023,1023,1021,1022
W,-99.06391753185456,77.68142196709802,-66.81698046292453,-0.455271396911387,-2.709290463291941,0.2338621732859608,-0.9326171875,-0.223876953125,-0.093505859375,872,589,1021,1023,1022
H,-46.8422872145826,48.92341158883302,-24.05133433659484,2.5965103598691397,-0.3791817638160902,0.0362683364407074,-0.226806640625,-0.949951171875,-0.3466796875,459,810,657,1022,1023
O,-77.15861395550408,67.27158330956397,-45.985154490739,-0.145460301825729,0.2229570478770183,0.4428888028986534,-0.824951171875,-0.49462890625,-0.117431640625,769,1023,1023,1022,830
B,-3.5349629365812323,8.140686077107322,0.0798503269819116,-1.3043233545572872,0.1731100714109827,2.1384599148696664,-0.95361328125,-0.12646484375,-0.120361328125,1022,1021,1022,1023,373
K,-55.40111919174432,55.41614705933725,-29.365069953068826,-2.1430944303081705,-0.0034633870511733,0.4653307888040711,-0.913330078125,-0.259521484375,-0.271484375,516,651,820,1021,1021
H,-25.05975966816811,38.7713211581236,-10.530595165364517,0.0077742990818592,1.004010271924579,0.3001371935132094,-0.164794921875,-0.966796875,-0.271240234375,445,762,808,1015,1023
P,-69.05842879064089,59.71108123697739,-38.23220052266147,-0.6529191405145603,-0.7898289510884938,-0.0670412779191405,0.4150390625,-0.2666015625,0.716796875,662,537,835,777,726
R,-60.315370904826814,64.26615085527726,-30.053336508830817,-0.5805414192818773,0.8891009329940626,0.0818136839129203,-0.845458984375,-0.21484375,0.25732421875,573,633,1023,1022,904
U,-63.55929259653713,77.58668861890278,-32.5434796765734,-1.5097618461321989,1.0485805748056425,0.514546030182573,-0.942138671875,-0.17529296875,-0.0126953125,803,697,1022,1021,1022
I,-26.715159827285397,39.619432519208814,-11.591929198601598,-2.3563513561051117,-2.727688465191543,-1.7702888099342178,-0.96044921875,-0.051025390625,-0.13134765625,867,1023,991,1023,1009
S,-61.94074724482397,66.50885185647282,-31.48492935206322,0.3739754458789175,1.0138600626165266,-0.058676610264889,-0.952880859375,-0.095458984375,-0.0439453125,1009,1021,1022,1023,1021
I,-27.02247493189949,40.68637219352596,-11.79215191226894,-2.9059696767157983,-2.61318464839765,-1.930594153445668,-0.982421875,-0.071044921875,-0.135498046875,867,1023,987,1023,1008
V,-82.25257561534157,78.52869313341543,-50.568763833089335,1.451612903225806,-0.3781967847468954,-0.0768635452210922,-0.907470703125,-0.19091796875,-0.040283203125,771,706,1023,1023,980
W,-101.84823473689453,77.61414025417858,-69.46751563150823,-1.3724276216273263,-2.4398986878671685,-0.7554085904245967,-0.952392578125,-0.166015625,-0.14501953125,931,539,1023,1023,1023
K,-54.35684302462446,55.49084694076307,-29.286384423524265,-4.227063895957025,-2.255371783997738,-2.18352417302799,-0.9296875,-0.250732421875,-0.276611328125,518,655,828,1022,1022
A,-0.4237802615118958,1.397581045448154,-0.0355704329024799,0.4232595771625571,0.1340626868821894,0.0653252189819528,-0.925048828125,-0.2783203125,-0.109375,610,1022,1023,1022,1021
J,-34.19093104290516,41.62160190003421,-15.040534853193291,-0.3777212326830644,1.392069550466497,-0.7269578739044387,-0.796875,-0.533447265625,-0.151611328125,918,1022,1003,1023,1022
B,-1.4122905274509934,0.3376521526448116,-0.3054747554015896,-1.2631447528001711,-1.1526004137832655,-1.7720981665120925,-0.549072265625,-0.47705078125,0.51318359375,835,380,561,451,249
N,-64.4136566707525,66.99056478504903,-33.97856431578558,-1.0297956168431424,1.7114714883737292,-1.1535512013226863,-0.93115234375,-0.18408203125,-0.04052734375,1021,1023,1022,1023,1021
L,-49.80055596710514,51.4696037578868,-26.851132604392426,0.5485278080697928,0.3789706968726917,0.5778661132022369,-0.87158203125,-0.203125,0.199462890625,888,1022,1021,1021,1021
N,-65.84831210839482,67.50299124201855,-35.16180949036303,-1.083230731346959,0.1160516410454849,-1.1993527280402434,-0.9326171875,-0.200439453125,-0.056884765625,1022,1022,1023,1023,1023
E,-10.757047499393138,30.400576484610863,-1.7891465078551176,-0.9640482639743906,-0.8376895205262602,-1.6900833714426426,-0.919677734375,-0.236328125,-0.03759765625,1023,1023,1023,1022,899
E,-9.787126228031092,28.31190667552304,-1.3927844919625456,-0.4983994090125584,-0.1430330319766419,-0.7511520737327189,-0.918212890625,-0.25048828125,-0.048828125,1021,1021,1023,1023,899
S,-64.4476098000699,70.01362304217355,-33.48974308163417,0.3335913040419317,0.2451894325817006,0.2187357090090417,-0.943359375,-0.08935546875,-0.086181640625,987,1022,1022,1022,1022
G,-17.051956773749183,38.45688390225739,-5.474001807193251,-0.6903296162099413,0.6406937066873042,0.9352728040243424,-0.19140625,-0.95654296875,-0.37890625,380,748,1022,1023,1023
P,-69.73864845905098,60.05181195087465,-38.96102847351028,0.0875388747526152,-2.805096126661013,-0.5097893695221938,0.417724609375,-0.262939453125,0.709716796875,674,540,840,782,725
H,-21.866149282563523,39.0522494803022,-8.376237549885754,-0.1448974566433315,-0.0341576670067187,-0.5853589896928975,-0.175048828125,-0.972900390625,-0.263427734375,439,761,803,1023,1023
A,-2.0816211982141404,4.699845998649187,-0.01992158200392,-4.609139198649171,-2.537130193126253,-1.6069581735673828,-0.904541015625,-0.321533203125,-0.082763671875,540,1023,1021,1023,1023
V,-86.21953353043216,78.56995832722113,-54.38849235642467,-0.4338832799803006,-0.5690364794033841,0.1979456150842511,-0.936767578125,-0.197509765625,-0.02880859375,758,699,1023,1023,978
L,-50.37369483545218,49.929065381403525,-27.228056642216465,0.6706652126499456,1.2950012312238368,0.6465684032785729,-0.88232421875,-0.181640625,0.191650390625,933,1022,1022,1021,1022
T,-65.83705819488925,71.33876496099441,-34.857286671283,-0.8223871671298415,1.1867238892602106,-0.1021564006050594,-0.928466796875,-0.1806640625,-0.010986328125,802,1023,1023,1022,1022
B,-2.033243103104092,0.6207709766049162,-0.4461013173956091,-1.5913890276093312,0.900834700720551,0.0981308411214951,-0.556640625,-0.470947265625,0.490234375,834,374,546,446,244
W,-94.50255946191584,78.1350663875211,-62.43231605227096,-0.0735920075984098,1.6342209870897386,0.5239385091638235,-0.933837890625,-0.20849609375,-0.08740234375,889,598,1021,1021,1019
N,-62.26927768894997,64.54104924653316,-32.46383144050298,-0.1426350014136273,0.0119098105739326,-0.3333686740175287,-0.943359375,-0.12646484375,0.008544921875,1023,1022,999,1023,1021
G,-19.887818818994774,38.71426496882503,-7.189460642273139,2.323037956871988,-2.907623034439089,0.0957188588313927,-0.22900390625,-0.922119140625,-0.46435546875,639,901,1021,1023,1021
J,-33.18616909117858,41.03036970724275,-14.426072622150835,0.0955612100650271,-2.8827396098388465,0.0211337291489964,-0.791015625,-0.540771484375,-0.16162109375,918,1023,1005,1022,1022
L,-50.54066643076769,49.41245610913746,-27.33894968076354,-0.4591057797164667,-0.3309529672494457,-1.1854926654237172,-0.859619140625,-0.159423828125,0.179931640625,945,1021,1022,1021,1021
D,-8.62298821854818,24.328348783596688,-0.9805423940155032,-3.0690556969182925,-0.665924512298558,-0.3177127509188573,-0.947265625,-0.13525390625,-0.041748046875,684,700,993,1023,741
Z,-133.4234476226968,71.94523615158516,-114.79046387590772,0.3674323706335525,-0.2980617019031201,0.501178457100644,-0.671142578125,-0.6904296875,-0.09423828125,848,754,1021,1021,1023
L,-51.34216455570116,54.28985782463228,-28.57552557394577,1.417173813627889,2.329510676469554,1.9541281176346437,-0.87646484375,-0.2998046875,0.0693359375,846,1023,1022,1021,1023
C,-5.951261202364292,15.19744595252734,-0.5413025406223169,0.0226193407675798,-0.1867942449080099,0.2980265240792208,-0.834716796875,-0.380615234375,0.14404296875,547,962,840,801,359
C,-7.40698170737132,18.291773019659804,-0.8642282624499645,-0.0994477081647727,-0.7973053786892742,-0.3517782389981354,-0.82275390625,-0.426025390625,0.148681640625,566,959,865,891,372
A,-0.5767409381871549,1.948071629922505,-0.0220455047841194,0.1484504168572136,-1.0796777711330776,-0.003377071094383,-0.91748046875,-0.295654296875,-0.105224609375,610,1023,1023,1022,1022
S,-61.74229753340233,66.30093398310693,-31.29969691222571,-0.3206810426707007,0.3955394519295038,-0.5548598163717593,-0.937744140625,-0.094970703125,-0.06494140625,1008,1023,1023,1023,1023
U,-67.61545898105594,76.03352934342057,-36.72227398484792,-0.815808914060576,0.7212509234178776,0.1867942449080099,-0.9091796875,-0.124755859375,0.11865234375,708,882,1023,1022,1023
P,-79.31693470967718,65.2336241730243,-48.12492766973718,-0.5877862595419845,-1.140218806064657,0.6501917191402539,0.488037109375,-0.330078125,0.65966796875,737,628,1023,1023,910
W,-107.95126998091052,77.85840901216228,-75.3009614825618,-0.6396031941464104,-1.5162345657297638,0.0842860660639528,-0.9423828125,-0.168701171875,-0.11865234375,911,526,1023,1022,1021
G,-18.374409430197105,38.67276165128676,-6.280949480413896,0.2085341400780949,-1.3961726527597005,0.2560242023428432,-0.232421875,-0.919677734375,-0.44580078125,645,903,1021,1022,1023
J,-34.387854193466865,41.75761987716219,-15.210459547677264,1.5612100650268592,2.224130619168787,-0.8948968052021486,-0.7861328125,-0.544921875,-0.133056640625,920,1022,1004,1023,1021
U,-66.32772617631306,76.21275142721069,-35.44691006024031,0.1002216202905691,0.5075104654026104,0.3776339395644985,-0.898193359375,-0.126953125,0.135498046875,709,881,1023,1023,1021
G,-13.764800655403858,37.48852220300754,-3.497037608962269,0.7371512998205931,0.1826784395117316,0.1871812009709075,-0.21337890625,-0.9501953125,-0.378173828125,381,756,1021,1023,1023
X,-101.64383724428548,76.81047878821428,-68.37591776223505,-0.6317500706813681,1.885354820469324,1.6378286683630177,-0.7861328125,-0.40576171875,0.24560546875,989,989,1023,1023,973
F,-11.377424879233915,31.710744919928374,-2.094112706155129,-0.4943891370879801,-1.0327505540507265,-0.64896049530376,-0.945068359375,-0.142578125,-0.075439453125,743,1023,1021,1023,482
P,-72.00960955370253,61.36270613457173,-40.76139551392796,0.3880053717839979,0.5291207237772123,-0.7237418716426349,0.397705078125,-0.28857421875,0.734619140625,762,449,854,852,739
Q,-75.31583676305225,63.4669013460608,-43.75800981591633,-0.9648221761001864,1.3389383332747034,0.2836739719280963,0.652587890625,-0.244384765625,0.583251953125,940,744,1023,1022,1023
A,-0.3157825273355746,1.038605865174692,-0.0364987328743703,-0.0652900411580535,0.1493298624547085,-0.0110106588806424,-0.919189453125,-0.287353515625,-0.112548828125,611,1023,1023,1023,1023
P,-71.99231131868383,61.348826223906,-40.75144063308211,0.2506007916313262,0.5749222504947696,-0.2733601922533221,0.39599609375,-0.28125,0.72265625,764,448,857,852,740
M,-61.5354852328237,62.82551205529658,-31.82239383371769,-0.0590635663277869,-1.280367256481514,-0.2701656875505673,-0.93505859375,-0.14453125,0.0,1022,1023,998,970,1021
H,-25.352072775045517,38.73311373093093,-10.724358623825449,0.0154078868681188,0.118514088718472,-0.4326872339677067,-0.158447265625,-0.98095703125,-0.265869140625,443,765,810,1022,1021
K,-55.92498449709387,55.4418787264231,-29.510086824502437,-1.1771203433355617,-0.9474795089175784,-0.4907306434023992,-0.921142578125,-0.22265625,-0.300537109375,543,656,656,1023,1023
K,-43.34008321919535,47.7133345204507,-21.142234163548835,-0.5738558412776587,1.0268406796355576,-0.1339571534104895,-0.550537109375,-0.58935546875,-0.742919921875,429,686,691,1023,1022
L,-49.89961269072324,51.18031443841196,-26.899586076062164,1.014176663031625,0.1804974144299436,-0.2923628944313508,-0.879638671875,-0.176025390625,0.19384765625,890,1022,1022,1022,1023
D,-8.335421368063056,23.74348792216478,-0.8849549921538311,-1.9240175289793608,-1.0094359626802374,0.6059513712185471,-0.945556640625,-0.154296875,-0.041259765625,686,703,987,1023,742
B,-5.463396861905083,3.6066045710682233,-0.0351821918672856,-0.215586721107758,2.3266820521924365,0.4917450736729982,-0.38818359375,-0.660888671875,0.451904296875,818,291,377,463,148
P,-77.23429657466446,64.35751972859742,-45.85909449207525,-0.8167938931297709,-1.2852569740035882,0.230344390895979,0.5009765625,-0.33837890625,0.642333984375,743,624,1022,1023,904
B,-3.9452005231503873,9.790043448664443,-0.0215615129955093,0.5878566151897848,0.7588911949906778,0.6543427023604329,-0.95263671875,-0.15673828125,-0.09716796875,1011,1000,1023,1023,368
N,-63.00058071114685,66.3939926480955,-32.995424283723786,-0.2800395815662991,-2.1025940062199604,-0.0814602770709638,-0.94580078125,-0.1259765625,0.025634765625,1021,1023,995,1023,1023
L,-50.642788156843714,48.60233800757755,-27.385432613045605,-1.7797164667393672,0.0507264220635314,0.1274844338129239,-0.888671875,-0.189697265625,0.180908203125,973,1023,1023,1023,1022
G,-15.195252302646702,37.95868197761485,-4.299488160293102,0.5844795440954023,0.0376402715728003,0.110845323108312,-0.21728515625,-0.938720703125,-0.385986328125,378,751,1021,1022,1023
G,-17.79043744395703,38.57922913454852,-5.922422852574143,0.0634959721391636,-1.4267070039047385,-0.8966475533823477,-0.224609375,-0.9091796875,-0.4423828125,646,896,1016,1022,1023
K,-56.57343491651886,55.838597431522864,-29.997057853794857,-0.3526928624195309,0.3731311781053223,0.1810250817884404,-0.9287109375,-0.231689453125,-0.29443359375,541,655,650,1023,1022
B,-0.0980818626061234,0.0488631363664989,0.0039353307698317,0.7673895983448671,-2.5800813298138,0.5714132838695868,-0.5615234375,-0.46484375,0.495361328125,849,387,600,461,245
M,-60.48964519225797,60.07623221663247,-31.52960242007111,-2.861287814532089,-1.501307605315239,1.4271981905569688,-0.92236328125,-0.193115234375,-0.03759765625,1023,1022,1023,907,1020
O,-72.92153142340149,67.8834865810056,-41.80884002029386,1.019558870088296,0.8576353466774544,0.0170964224153085,-0.81396484375,-0.510498046875,-0.102294921875,717,1023,1023,1021,816
J,-34.65484332993534,41.89338988777438,-15.387613415108005,-0.7212326830647438,1.063825275657337,-0.2307746677975684,-0.80810546875,-0.538330078125,-0.14990234375,920,1023,1006,1021,1022
Q,-75.0108473351897,63.3398412908096,-43.447048191478494,0.2489182819150807,-1.7297639568016323,-1.5102191578428965,0.65576171875,-0.243896484375,0.582763671875,937,743,1023,1023,1022
D,-8.097893236564198,21.787020792028937,-0.8781608146698636,-0.0909698526049184,0.0286699264783478,1.0662046645794487,-0.93115234375,-0.178466796875,-0.040283203125,685,658,1023,1023,919
K,-53.34028638900088,55.40963413159459,-29.316334466624664,-4.31866694939214,-3.018730562623692,-2.122455470737913,-0.929931640625,-0.236572265625,-0.27783203125,521,668,835,1023,1023
H,-23.195571673873324,38.88157561867564,-9.314912722714343,0.8093010166391112,-0.7746156822738943,-1.5548246385478597,-0.164306640625,-0.96875,-0.27783203125,446,763,811,1023,1023
F,-11.88234507345853,33.161636818410464,-2.442435255762118,-1.4027860836528656,-1.30755971435607,0.1067646955359347,-0.95068359375,-0.13916015625,-0.082275390625,735,1023,1023,1023,484
K,-56.19399136920822,55.56110665661308,-29.694474025590555,-0.8488760685264012,0.4036655292503605,-2.7884405670665213,-0.917724609375,-0.228759765625,-0.287841796875,541,657,655,1021,1023
X,-107.427081777847,77.65475328673935,-74.66022919630048,-0.376590330788804,1.2924088210347748,-0.1299830364715865,-0.84765625,-0.344482421875,0.179931640625,738,1022,1023,1023,1023
C,-5.27699660004047,14.016627816188944,-0.418199591338444,1.824146058324832,0.263587434481303,0.4583318675906712,-0.824462890625,-0.362548828125,0.1611328125,555,961,841,797,356
Z,-135.45475699103628,72.48780631764576,-116.67210386809752,-1.25852182783973,0.7706405881732157,0.3714074647342317,-0.67578125,-0.70703125,-0.10009765625,849,755,1023,1022,1023
S,-64.31548686782219,69.8316372920866,-33.37263019117306,-1.5748056425229535,-2.701375452914483,0.0355296021388127,-0.9521484375,-0.09228515625,-0.076171875,992,1023,1022,1017,1022
I,-27.500540921111146,41.68709322639256,-11.981184073643115,-1.3888888888888888,-2.025551314673452,-1.645603618886062,-0.95458984375,-0.102294921875,-0.181884765625,902,1023,1023,1023,764
K,-54.05092667788818,55.52486620424158,-29.3237298515599,-4.074392140231835,-2.2248374328527,-1.2522264631043256,-0.9140625,-0.24169921875,-0.282470703125,518,661,828,1023,1021
S,-64.46840482440088,70.04512215448567,-33.509592322610466,0.1656523727442218,-0.3196960636015055,0.180567770077744,-0.951416015625,-0.084716796875,-0.070556640625,988,1021,1022,1021,1021
F,-12.04551052250273,33.68208703487076,-2.516059746979005,-0.6775952439582091,0.2267914306820979,-0.0077391212579583,-0.944091796875,-0.1455078125,-0.0908203125,736,1023,1022,1021,481
O,-75.08240491715783,67.52394272708067,-43.94673626058803,-0.1560136489956735,0.0408414535476834,-0.3264150279663709,-0.819580078125,-0.5166015625,-0.07861328125,716,1021,1021,1023,817
X,-106.56855314732836,77.51463716763021,-73.78853549121307,0.005089058524173,-0.0205682782018663,0.1295589482612379,-0.846923828125,-0.33251953125,0.172607421875,733,1023,1021,1023,1021
M,-59.671242861398326,58.26636790052863,-32.020926004304,-2.1360969748374323,0.3689214023183489,1.839411931014984,-0.925048828125,-0.2080078125,-0.020263671875,1023,1022,1022,912,1023
K,-56.33186714218254,55.6492826300543,-29.80229113871498,-1.7572730150912867,-1.9169451577725405,-1.5823336968375137,-0.937744140625,-0.21875,-0.28955078125,541,653,654,1023,1023
Y,-119.73945520945654,76.62034985709813,-85.88379833487282,0.4092451229855807,-0.6620723777212327,0.881078597681652,-0.949951171875,-0.165283203125,-0.190673828125,920,1023,1022,1021,850
G,-15.074485803672538,37.90824362696877,-4.237457227798014,-0.0643754177366588,1.0529074471453197,-0.3166355929222222,-0.203369140625,-0.94970703125,-0.36669921875,378,753,1022,1022,1023
G,-21.514507491066425,38.99557251109933,-8.167475671385796,0.4986104759559575,-2.831287156576494,0.3857951947092554,-0.218994140625,-0.931640625,-0.457275390625,639,898,1022,1023,1023
K,-44.11701372945087,48.05170207334552,-21.911099217370243,-1.5051535512013228,-0.6067471066239842,0.0110810145284419,-0.54296875,-0.614990234375,-0.728271484375,428,682,694,1023,1023
B,-4.405605167581826,11.479536640669869,-0.2933267822012207,-0.2365708657262457,-1.6914904843986351,0.669609877932952,-0.949951171875,-0.173828125,-0.08984375,1003,996,1023,1021,364
G,-16.302875596462464,38.22918432179973,-4.967557892929599,-0.1788792345305519,1.007105920427762,0.2864178421922815,-0.2060546875,-0.94970703125,-0.377197265625,378,753,1023,1022,1023
P,-79.65125932832127,65.32183425871216,-48.45351309742966,0.2877085100367541,-0.0502897936104045,-0.5976816511167662,0.307373046875,-0.46923828125,0.668212890625,766,691,1023,1023,882
Q,-73.18837575101311,62.228368689554415,-41.61334402809268,1.3002075491610088,0.4689203925845144,-1.987793295106764,0.789794921875,-0.24072265625,0.440185546875,769,617,1023,1023,990
J,-34.7727836776605,41.95981897077036,-15.44926935112179,-1.1258128357364996,-0.8369380831212891,-0.4139807746677975,-0.790771484375,-0.537109375,-0.144775390625,915,1023,1003,1023,1023
X,-108.47082624859128,77.82345602329872,-75.75929982105183,0.0585241730279898,0.4298134011874467,-0.7864715860899071,-0.85009765625,-0.342529296875,0.140869140625,736,1023,1022,1023,1022
L,-50.66524272558871,48.85526772112936,-27.413261192122423,1.4034896401308616,0.8751539029795619,0.1274844338129239,-0.861328125,-0.186767578125,0.18310546875,963,1023,1015,1023,1023
I,-27.19825056670752,41.26144362844826,-11.825360661270564,0.1169310866429803,-1.147535793435818,-0.7855559855067368,-0.969482421875,-0.06640625,-0.130126953125,873,1023,982,1023,1019
N,-65.77942050789783,67.48735213993271,-35.105880370953145,-1.0603299679881806,-1.4335666795652022,-1.1535512013226863,-0.944091796875,-0.20263671875,-0.0625,1022,1022,1022,1023,1023
T,-68.56636532102378,73.29438859281048,-37.67100092671879,1.876448968052021,-0.6594218264065594,0.2035623409669207,-0.93701171875,-0.134521484375,-0.015869140625,867,1022,1023,1023,1023
P,-80.56443809787916,65.75325929001177,-49.26541956925621,0.3335100367543113,1.04131325982471,-0.2618037885213464,0.312744140625,-0.44873046875,0.68505859375,767,694,1022,1021,883
B,-3.4777729696040627,7.961257539469056,0.0027788711761286,-0.8386744995954551,-1.2238364934745134,-0.1668835965807151,-0.948974609375,-0.124267578125,-0.135498046875,1021,1023,1022,1023,373
Y,-114.38123384491296,76.5278990653713,-80.53199058612815,0.2107718405428327,-0.791843370087645,0.2245900480633313,-0.958251953125,-0.151123046875,-0.200927734375,916,1023,1023,1022,852
D,-8.296001261019262,23.69012856022219,-0.8896400457177182,-0.5652389030251624,-1.337680237489398,-0.9207661860333612,-0.946044921875,-0.15283203125,-0.0439453125,682,701,989,1022,739
S,-64.14023424098285,69.63702720204667,-33.231564882879965,-0.7961796883244804,-1.2815281246702075,0.0049952509937745,-0.94775390625,-0.06982421875,-0.0830078125,991,1023,1022,1022,1023
M,-60.58561434044488,60.31491618803044,-31.29886009437693,-2.3651046084252183,-1.5852770709640938,0.9691829233813964,-0.928955078125,-0.17333984375,-0.019775390625,1016,1023,1023,908,1023
P,-68.78923188291775,59.55975460209,-37.944321676946856,-0.4620794458580718,1.2559725756290634,1.0398289510884933,0.428466796875,-0.265625,0.72265625,659,537,833,777,729
M,-60.39190937722652,59.71004077181381,-31.736096155428605,-1.6399137687305618,-1.4784068419564602,-0.5270002827254738,-0.951416015625,-0.180419921875,-0.01953125,1022,1023,1022,909,1023
A,-2.8037808048214505,5.4458663770723,-0.1333681131878679,0.6275020227248744,-0.2852217961796884,-0.0573398529566959,-0.9130859375,-0.339111328125,-0.1064453125,543,1023,1021,1023,1022
V,-84.15622279296775,78.55392678622118,-52.40322957310235,-0.6705245013543465,2.011116192352341,0.7093959967636405,-0.936767578125,-0.1943359375,-0.031494140625,767,704,1023,1021,975
H,-25.74047189568448,38.738068976550124,-10.988058306885256,0.7558659021352945,0.6986667604741972,-1.1655116614486225,-0.161865234375,-0.97265625,-0.253662109375,447,766,809,1023,1021
A,-1.426260344187821,4.031394299230226,0.0031149898340815,-0.716009427656805,0.2643965244309986,-0.0497062651704363,-0.916259765625,-0.321044921875,-0.107666015625,536,1023,1023,1023,1022
C,-6.018959257403106,15.346166181717775,-0.5583562482428486,-0.2063882928202064,0.3017553734126008,0.4048967530868543,-0.81298828125,-0.379638671875,0.1513671875,545,955,833,800,360
A,-1.2095194980579684,3.603897113497269,-0.0091282750599576,-1.883948358954515,-0.0562141625919021,-1.141309318605551,-0.89111328125,-0.3203125,-0.130859375,536,1023,1023,1022,1021
E,-10.397155154232218,29.7295378130622,-1.5326810154014128,-0.6663383403102683,-0.4483765434270236,-0.514510852358673,-0.934814453125,-0.237548828125,-0.033203125,1023,1022,1023,1021,900
G,-15.304152712923518,37.97562500912729,-4.357826120106531,-0.9880395398740632,-0.1455658352974286,0.1261124986808312,-0.212158203125,-0.947021484375,-0.379638671875,377,755,1023,1022,1023
Q,-72.98649816007958,62.02563366851922,-41.5123480017378,0.1551693812220775,1.0490730643402395,0.0809089949695718,0.791015625,-0.237060546875,0.442626953125,770,617,1023,1023,992
S,-62.13571106364015,66.78963003743345,-31.673759886588662,1.2747388046575434,-0.7723994793682063,0.5214760614908361,-0.95654296875,-0.088623046875,-0.055419921875,1008,1023,1022,1021,1021
U,-60.83064377704197,76.80640195631092,-29.91426677938315,-1.434129524747599,0.6372814577690227,-0.4620607169240511,-0.904052734375,-0.12548828125,0.139404296875,697,867,1023,1022,1015
B,-0.0723671595342878,0.0532860737157656,-0.0150149721035593,0.5765499036883786,-1.9999286580580744,-0.4209531283441536,-0.56103515625,-0.4873046875,0.49267578125,850,390,599,461,244
Q,-73.0394586349845,62.07831656105767,-41.545355151830016,0.0101312132831462,-0.3249727371864779,0.2946494529848389,0.78857421875,-0.235107421875,0.427001953125,769,615,1022,1023,991
C,-5.802624802516276,14.955347383329832,-0.5241753349988528,0.2058254476378088,-0.1257255426179336,0.4125303408731139,-0.843505859375,-0.368896484375,0.157470703125,552,961,842,798,357
X,-101.5583517501402,76.81970323197034,-68.16700595019314,-1.1279332767882382,1.2823013853548204,1.4927905004240865,-0.79248046875,-0.3818359375,0.23681640625,979,984,1023,1023,976
Y,-101.9212551984653,76.72195299131262,-68.29567155237194,-1.198543638090548,-2.7336686952545115,-0.7011292081471838,-0.9296875,-0.204833984375,-0.2421875,842,1023,1022,1022,820
U,-60.511789945506,76.82326186327968,-29.60864838075658,1.1078552080768287,-0.9276040384141836,-0.248320258908784,-0.895263671875,-0.124755859375,0.129150390625,697,867,1022,1023,1016
B,-4.262841451655456,10.937867219939694,-0.2183402359078222,1.33594821824322,-1.4395820874520704,-1.093748900693002,-0.949951171875,-0.177734375,-0.09521484375,1004,998,1023,1021,365
I,-26.490193344915703,38.936106146020464,-11.47746232184922,-0.2342139515249586,1.302845885953495,-0.3504414816899427,-0.9716796875,-0.064697265625,-0.140380859375,865,1023,994,1022,1012
P,-72.27795714544223,61.525001754397856,-40.96596838817761,0.5254099519366697,1.0558382810291207,-0.0672533220243144,0.396484375,-0.284423828125,0.730224609375,764,449,856,853,741
K,-38.8959978730388,45.38034496553785,-17.874568854511274,1.587150127226463,0.2983107152954481,1.825310998020921,-0.5068359375,-0.557373046875,-0.835205078125,499,770,740,1023,1021
F,-12.974992948767818,36.50219625274165,-3.0494281331265647,0.2561649136384425,0.6410103071024027,0.4511907693390086,-0.94287109375,-0.16064453125,-0.03564453125,528,1023,1021,1022,442
P,-68.98482105170386,59.65618526984813,-38.1548976779544,-0.3246748657054,0.3094076901328802,0.0474625388747527,0.4248046875,-0.272216796875,0.718505859375,664,535,835,777,726
L,-51.87457464468498,55.24668209702184,-29.168695170974416,2.3942730502691107,2.543251134484821,2.251838041298765,-0.870849609375,-0.317138671875,0.099365234375,833,1021,1021,1022,1023
R,-66.76419576802743,60.819616980640674,-36.14967032800133,1.1706955046649703,-0.1882951653944012,-0.3473635849590055,-0.8779296875,-0.173583984375,0.18994140625,403,649,1022,1022,1023
U,-61.2201150158532,77.178735119919,-30.26498236733158,-0.5784641362085344,0.1859851549583143,-0.5770570232525415,-0.951904296875,-0.158935546875,-0.015625,808,709,1022,1022,1023
M,-61.92475845440912,63.74594193904652,-32.18176781038353,-1.4789108945720617,0.3455869419917684,-0.4075702677032391,-0.9404296875,-0.142578125,0.005126953125,1023,1022,998,971,1021
Q,-73.5015991873067,62.47339683221861,-41.81666570857263,0.3154747247335279,-0.5158124318429664,0.210679987335984,0.7919921875,-0.228271484375,0.431640625,769,618,1022,1022,993
V,-70.10394852382683,78.35815349448778,-38.76416796056425,-1.0738030745418088,-0.3979315439546909,0.5614380694410241,-0.933837890625,-0.174072265625,-0.015380859375,812,669,1022,1022,978
D,-8.047753472845068,21.006538067265687,-0.9523929043644048,0.5884194603721808,2.6164561860203324,0.4097161149611281,-0.949951171875,-0.174072265625,-0.024169921875,680,660,1023,1021,918
P,-82.2293788749636,66.36003106025166,-50.71914519946505,0.4403802657619449,-0.2105951371218549,0.2954481198756002,0.326416015625,-0.460693359375,0.686279296875,768,696,1022,1023,885
W,-91.34726813295168,78.39393029279046,-59.34960067946517,0.1019805114855595,0.8326942695324867,0.4781369824462662,-0.929931640625,-0.232421875,-0.113037109375,901,632,1023,1022,1022
F,-13.045804608499706,36.63693640840959,-3.091081141146196,0.1263939212720303,0.2135293910718683,-0.2587328947831288,-0.947998046875,-0.151123046875,-0.033447265625,521,1023,1023,1023,438
Z,-135.1586791555327,73.2571348502957,-114.33719365499124,14.781205824144754,9.039016115351991,6.051738761662427,-0.716064453125,-0.638427734375,-0.052001953125,735,708,1023,1022,1023
D,-8.344421452392652,23.14366045123943,-0.91022788501097,1.4652954481198757,-1.3071458863443597,0.0868674017528983,-0.955078125,-0.145263671875,-0.048828125,686,705,991,1022,742
K,-38.66105162601817,45.213060874184805,-17.654018322329513,0.96882951653944,0.2601427763641505,0.5810361888606158,-0.48828125,-0.539794921875,-0.829345703125,500,771,742,1023,1022
I,-27.39382492049732,41.5958438181469,-11.902843281565012,-1.5644614079728585,-0.3003604749787955,0.1711902742437091,-0.964111328125,-0.09130859375,-0.17041015625,904,1023,1021,1023,768
V,-68.35045920698398,78.25195658602165,-37.13381390050381,-0.3104442959158545,0.4112287613888205,0.4087663137158334,-0.93212890625,-0.205078125,-0.006103515625,817,675,1023,1023,982
P,-79.10547401544322,65.15020711183422,-47.9051830026722,-0.1374045801526716,-1.0791501037745803,-0.6322510289513493,0.486572265625,-0.32861328125,0.66064453125,741,625,1023,1023,908
C,-6.001120330488389,15.309887625496485,-0.5577648209701425,0.0989552186301753,0.9277095718858832,-0.1294543919513135,-0.82421875,-0.38330078125,0.149169921875,548,960,839,802,361
Q,-73.21860668477738,62.27494597435097,-41.626038561343066,0.7200548774052836,0.4994547437295526,-0.5145108523586726,0.782470703125,-0.24853515625,0.423095703125,768,617,1023,1023,988
T,-70.16796090902461,74.9215241752901,-39.20041402043605,-1.1388182075204978,-0.2930096126661014,-0.7353689567430028,-0.93798828125,-0.13720703125,-0.009521484375,848,1022,1022,1022,1023
V,-77.30843771427327,78.47031937807196,-45.743755630942765,0.7429908185879622,0.4417631125338587,-0.0645161290322582,-0.922607421875,-0.181396484375,-0.016845703125,795,656,1022,1023,977
W,-103.0094482682718,77.64716566483466,-70.56734393972079,0.1619235234108415,0.4761318464839765,-0.3889963766841388,-0.94873046875,-0.16162109375,-0.129150390625,923,533,1023,1021,1023
T,-69.76190155206471,74.67643903443015,-38.83431099797743,0.1283573649985862,-0.1632386202996892,0.615776081424936,-0.94140625,-0.142822265625,-0.0009765625,850,1021,1022,1023,1022
O,-71.34748833286376,68.03411775235334,-40.23205678542899,-0.0720441833468185,-0.1423646533225455,0.1697681781404992,-0.804443359375,-0.521240234375,-0.097900390625,718,1023,1023,1021,815
U,-60.88755269119286,77.1250680618734,-29.933117355680423,-0.2502198613993741,-0.9285186618355789,-2.9053012980617017,-0.93408203125,-0.16015625,-0.00244140625,809,707,1023,1023,1023
H,-50.534172024150905,48.39626445337189,-27.25315273372836,-0.2966194111232271,-1.501319168396243,0.2652759700284938,-0.232421875,-0.952392578125,-0.35107421875,461,799,655,1022,1021
P,-82.13570342200461,66.33555956429318,-50.6356613959418,0.8449604184337006,0.1023819621147863,0.0664404862878138,0.31640625,-0.454345703125,0.677734375,767,696,1022,1023,886
I,-26.94399807206802,40.438679648924825,-11.718910665079608,0.971892918704049,-0.6589861751152073,-0.3809758328349809,-0.962646484375,-0.07763671875,-0.138427734375,867,1023,987,1023,1005
A,-0.2688103267861121,0.847899015950333,-0.0211758832399314,-0.0194885144404963,-0.3850212825834594,-0.1407816512470547,-0.908203125,-0.277587890625,-0.1162109375,614,1023,1021,1023,1022
M,-60.42792450596401,59.77966249639193,-31.72832533553237,-1.2964023183488824,-0.9440556969182924,1.1905569691829232,-0.924560546875,-0.180419921875,-0.044921875,1023,1021,1023,913,1023
M,-60.83318175565032,61.14631242874668,-31.1183537498436,0.4829211664966405,0.5211594610757379,0.4779259155028678,-0.946044921875,-0.144775390625,0.00048828125,1023,1021,1005,971,1023
S,-62.71511868465143,67.72022063920323,-32.1270510798951,-0.5900728180954727,-0.7471769796320399,0.1271326555739271,-0.944091796875,-0.089599609375,-0.083251953125,1010,1023,1021,1022,1023
W,-104.57616425910616,77.74761695807388,-72.015971892751,-0.5327329651387768,0.1097196327435185,0.2216906462166246,-0.938720703125,-0.172119140625,-0.124267578125,919,530,1023,1021,1023
P,-71.9091959482931,61.29501592979066,-40.67307494508591,-0.1158114221091318,-0.4632456884365281,-0.9145815662991236,0.400390625,-0.2861328125,0.7373046875,765,448,854,852,738
S,-61.221117677904594,65.63418897874956,-30.840692000158946,0.1297006367186122,-0.0166742885285114,0.0405600309564849,-0.966796875,-0.092041015625,-0.05615234375,1011,1023,1023,1022,1023
E,-9.125577336217775,26.27741562473563,-1.0831030612629942,2.446793541351532,0.7506595841981214,0.0105533471699443,-0.94482421875,-0.201171875,-0.05126953125,1023,1023,1023,1021,905
L,-50.34971532479564,49.97710577208145,-27.21755463311717,1.464558342420938,0.3713371090864322,1.2648890139655955,-0.885498046875,-0.19189453125,0.185546875,937,1015,1022,1022,1023
D,-8.269949290160152,22.76124613204572,-0.9058854154631816,-1.0537885213457732,-1.933100084817642,-0.5314532089341246,-0.9521484375,-0.14501953125,-0.047119140625,687,710,991,1023,742
P,-68.36826185004992,59.37877251155688,-37.48415024103895,-1.721621430590896,0.1949038733389871,1.826088493073226,0.42919921875,-0.267578125,0.724365234375,657,538,830,777,727
L,-50.65461846862125,48.63931322717227,-27.393774892437257,-0.7415485278080697,0.6308790938192566,-0.4297674745840225,-0.87646484375,-0.167236328125,0.1767578125,972,1023,1022,1023,1023
D,-8.097726681962042,22.07125562131352,-0.8740936849017408,-0.5871530587117886,-0.8262919055827209,-0.2620396102297115,-0.92724609375,-0.1748046875,-0.03955078125,679,657,1021,1022,919
P,-81.65847786327198,66.1690791749861,-50.22200843793949,-0.0710701159174443,-1.2105951371218548,-0.4450098953915753,0.301513671875,-0.456787109375,0.680908203125,767,696,1023,1023,885
H,-24.752164957946118,38.77512860046658,-10.35362702534256,0.0535758257994165,-0.0494248425792378,-0.8220002110669432,-0.15966796875,-0.9658203125,-0.259033203125,442,765,813,1021,1021
X,-102.63862613352468,76.89183627162308,-69.80356347249844,0.2111959287531806,0.842027141645462,-0.1299830364715865,-0.828857421875,-0.330322265625,0.160400390625,733,1023,1021,1023,1023
W,-108.29502020621749,77.86465747532583,-75.62326534214826,-0.9678474689555708,-0.7910437260351074,-0.503500193478032,-0.947998046875,-0.171142578125,-0.117431640625,911,525,1021,1023,1021
S,-63.25062700858828,68.38218650357926,-32.580346828747096,-0.2389277799275339,0.0161817989939143,-0.0713406268688208,-0.96142578125,-0.078369140625,-0.083740234375,1004,1022,1023,1022,1022
A,-0.1602304367714788,0.4996510246932154,0.0039143793805956,-0.6149083617687405,0.057726809019594,-0.72093432300278,-0.923583984375,-0.271484375,-0.127685546875,613,1023,1022,1022,1023
E,-9.09463268959209,26.119710424730613,-1.0627701127089098,0.7903049917332117,1.1018046223660605,0.3540647975516238,-0.934326171875,-0.200439453125,-0.045166015625,1023,1023,1023,1021,903
K,-45.57767142295175,48.64310815390163,-23.04967243285383,2.678052555668906,0.1947796109332676,0.125584831322335,-0.562255859375,-0.59619140625,-0.69970703125,425,676,690,1021,1023
F,-12.71956948209793,35.55952972484686,-2.842015028799158,0.3630351426460761,0.2211629788581279,0.1840151968199246,-0.934814453125,-0.14599609375,-0.065673828125,527,1021,1021,1022,439
D,-8.272406342539488,22.797977932270545,-0.90306797772988,0.2133870511733108,0.0745335029686175,0.5143483177834327,-0.9443359375,-0.147705078125,-0.0595703125,686,708,991,1023,740
H,-24.571158804405734,38.79490702034395,-10.258666397665394,0.778766665494073,-0.1028599570830546,-0.4555879973264852,-0.166259765625,-0.975341796875,-0.267822265625,447,763,814,1021,1019
R,-66.92462707900451,60.59878659847796,-36.26246889055312,-0.5315945716709075,1.6895674300254462,-0.3473635849590055,-0.88427734375,-0.18310546875,0.196533203125,405,651,1023,1023,1021
B,-4.526770005538963,12.068185367904048,-0.3137866423377159,0.0535054701516168,-0.225841629436803,-0.3685580609983456,-0.940185546875,-0.16259765625,-0.08837890625,1001,996,1023,1021,364
R,-65.69492685095118,62.4577916983728,-35.33973261429729,-0.1377933276788238,1.4692536047497875,-0.3609344076901331,-0.847900390625,-0.216064453125,0.2578125,576,656,1023,1023,906
Q,-73.67826150792772,62.63976824444306,-41.951678271560816,-1.1098603440391177,-2.630527315580258,0.4516129032258061,0.65283203125,-0.260009765625,0.56201171875,935,740,1023,1021,1022
Q,-73.73845220671953,62.655860265109865,-42.02718507243477,-0.2014633974742321,0.9343581806029476,-0.5712878601329724,0.654296875,-0.265380859375,0.57177734375,937,740,1022,1023,1023
E,-10.21262206816698,29.25279073397264,-1.4817684278748116,-0.6434375769514897,-0.6697505892285504,0.2259471629085024,-0.925537109375,-0.2392578125,-0.060302734375,1023,1023,1023,1022,898
N,-62.09203176437033,64.17674569960612,-32.34497749429587,-0.0357647724059937,0.1340472151540852,-0.5623763076053149,-0.93701171875,-0.11474609375,0.00439453125,1023,1022,998,1023,1022
X,-102.71773900595988,76.90504247038226,-69.87676298855101,0.0127226463104325,2.8649279050042407,0.6104749787955891,-0.835693359375,-0.33544921875,0.185302734375,733,1021,1022,1023,1021
S,-63.92130716516845,69.33895077259791,-33.078187308706326,0.2267210750342982,-0.861680796425933,0.9897280754212554,-0.958984375,-0.083984375,-0.07763671875,992,1021,1023,1023,1022
D,-8.073416755652607,21.271793429105188,-0.9351365338978824,1.886129384036303,0.5095859570126989,-0.0253983888556657,-0.947509765625,-0.1767578125,-0.022216796875,682,661,1023,1023,917
N,-66.9888780524624,67.88787097582912,-36.042075669817166,-0.8923910366904705,0.4671966792134238,-0.3825588349104726,-0.923828125,-0.21435546875,-0.055419921875,1023,1021,1022,1022,1023
C,-4.694660115562188,12.638431416967736,-0.3094146338746433,-1.1911211172476872,0.3246561367713794,0.611003623315862,-0.8349609375,-0.369140625,0.1640625,564,967,836,791,356
K,-42.25183809367432,47.44611697915735,-20.414194044848166,3.7260390161153527,-0.4544105173876158,1.4276222787673165,-0.6142578125,-0.591552734375,-0.660888671875,501,610,648,1022,1021
N,-66.88016602062477,67.84563659091718,-35.94375770141297,-1.2664368382171882,-0.2198262215499349,-0.5046962394906253,-0.934814453125,-0.206787109375,-0.04638671875,1023,1023,1023,1021,1023
K,-53.37076613576306,55.39919814001567,-29.27429752510117,-2.1507280180944304,-2.7973565168221657,-0.1606234096692112,-0.925537109375,-0.251708984375,-0.268798828125,519,663,834,1023,1022
K,-43.839810734508525,47.92355541429499,-21.621093057237605,-1.2456115664684984,-1.125831076089633,-1.187392267914306,-0.54296875,-0.60009765625,-0.717529296875,430,676,689,1023,1023
J,-35.34408796881011,42.604035775689056,-15.738715846511234,0.7664334181509753,2.6334464235227597,2.0007774950523034,-0.84765625,-0.459228515625,-0.26953125,921,1023,1018,1022,1023
Y,-113.1875346060272,76.49709616232245,-79.35229251834323,1.0962680237489395,-0.791843370087645,0.9268801243992092,-0.9482421875,-0.15087890625,-0.203125,915,1023,1023,1023,855
K,-57.53638387452524,56.51847843736585,-30.649005803895925,-1.352692862419531,-0.6192352341084181,0.5779716466739366,-0.9248046875,-0.220947265625,-0.292236328125,537,653,641,1022,1023
A,-2.821696635866977,5.479137651923838,-0.1237559053668869,-0.5633376719316141,-0.2470538572483907,1.0724311394097163,-0.899658203125,-0.33544921875,-0.11767578125,541,1023,1023,1023,1023
Y,-112.98674173313744,76.4769411473983,-79.15789238639762,-0.560220525869381,-0.5704693242861183,0.7589411931014993,-0.9521484375,-0.167724609375,-0.206298828125,916,1023,1022,1023,858
S,-62.26952329037089,66.93816333774117,-31.803395376124417,-0.3435818060294794,0.5024096809371373,0.0176592675977064,-0.9521484375,-0.095947265625,-0.06201171875,1003,1023,1023,1023,1021
C,-7.427934143982878,18.328743037894675,-0.8652105141801151,-0.3895240440426354,0.4698701938298097,0.526084356421712,-0.81640625,-0.419921875,0.142822265625,564,959,859,892,370
H,-23.61101031364839,38.84755150732594,-9.583735729907048,-0.2746684490097438,-1.110493544869314,-0.9365040278608364,-0.168701171875,-0.97265625,-0.274169921875,446,764,811,1022,1021
Y,-103.98362952164226,76.72836169424461,-70.27289350278211,-3.3206810426707003,-1.1382488479262671,-0.6934956203609242,-0.9306640625,-0.217041015625,-0.242431640625,846,1023,1023,1023,795
A,-1.177158317952839,3.569188405497364,0.0031000981363427,-0.380131565061385,0.6308087381714567,0.1029654905547544,-0.90625,-0.337646484375,-0.10498046875,535,1023,1023,1022,1023
P,-69.92165605031569,60.13552308964062,-39.15246005169558,-0.6223847893695222,-0.6295236075770434,0.7573862029968901,0.423583984375,-0.262939453125,0.723876953125,671,537,843,781,725
V,-83.61747666258722,78.55007731967643,-51.89666633110409,-1.0064023639497663,-0.5690364794033841,-0.4814436978928481,-0.934814453125,-0.176025390625,-0.04150390625,765,704,1023,1023,977
O,-70.90777091661907,68.06602229660436,-39.75861982033842,1.034826045660815,1.2927498504942485,0.8644246666901176,-0.82568359375,-0.518310546875,-0.093505859375,716,1023,1021,1021,820
V,-71.71539952917377,78.34560549609708,-40.3663706571924,0.2544412002673515,-1.7261758187638514,-0.835508495444472,-0.9306640625,-0.204345703125,0.0068359375,805,664,1021,1023,975
Q,-76.36132217382242,63.92110787178508,-44.837700170097385,-0.6136771379322474,-2.4320540331375105,0.1615365673479436,0.641845703125,-0.234619140625,0.59912109375,933,748,1023,1023,1022
K,-57.014616895361954,56.17650630083623,-30.308669302637,-0.0855172899004469,0.1593907200900552,0.6695747001090511,-0.929443359375,-0.226806640625,-0.2724609375,538,652,645,1023,1023
O,-78.86520613219047,67.04797050910359,-47.62386897911465,0.938509163823126,0.612270024976255,0.6184613219826229,-0.84375,-0.496826171875,-0.1015625,770,1023,1021,1023,827
O,-68.6897938515487,68.28850412738457,-37.531856357560685,-0.2857846413620857,0.3538185527843246,-0.4027509058289664,-0.819580078125,-0.505126953125,-0.094482421875,721,1023,1023,1023,824
A,-1.711302224628483,4.413143749109287,0.0118657366552895,-2.7541773665881024,-2.7050691244239635,-0.9275688605902837,-0.903564453125,-0.31689453125,-0.1162109375,539,1021,1023,1021,1022
A,-3.0181721197949645,5.687319904317402,-0.1619429651310472,-2.1053224047560413,-1.2852217961796886,-1.5000879445597493,-0.906494140625,-0.32861328125,-0.114501953125,540,1023,1023,1022,1021
P,-71.8736014214751,61.25295651654417,-40.66242563272624,0.0979290359061353,0.4756856092733955,-1.3267953067571387,0.397216796875,-0.2802734375,0.734619140625,763,448,856,852,741
Y,-118.1171936595432,76.61173994862664,-84.27846107636853,-1.399915182357931,0.0325841108283855,0.6291702007350871,-0.95556640625,-0.14892578125,-0.196533203125,919,1022,1021,1022,854
B,-1.043060887796177,0.2519914220864376,-0.2126491371691252,-0.5455875008917741,-2.190768352714563,-1.2759149604052222,-0.557373046875,-0.459228515625,0.4970703125,842,381,563,452,244
P,-71.00794028805785,60.645914984937576,-40.01167569364946,-0.4898572236358494,0.116906983319197,0.1006856092733955,0.401611328125,-0.289306640625,0.720947265625,766,446,859,852,737
O,-79.47785642626641,66.95118211613952,-48.180046792941695,0.1064480951208358,0.2076898723044992,1.0306750624406382,-0.81640625,-0.493408203125,-0.1142578125,768,1022,1021,1022,825
L,-50.02400739976893,52.467645756442906,-27.136965001374797,-1.7431315298835617,0.8791289970802414,-1.274879515953143,-0.883056640625,-0.2724609375,0.063720703125,895,1021,1023,1023,1023
B,-4.306836763183905,11.148487759388162,-0.2335146761474333,-1.0075632321384596,0.4001125690364794,-1.0174130228304068,-0.93798828125,-0.142578125,-0.09033203125,1004,995,1023,1022,362
E,-9.759740257637391,28.206082990133005,-1.4019501988478282,1.0116790375347384,-0.3791114081682907,-0.6917367291659335,-0.923095703125,-0.2099609375,-0.0615234375,1023,1023,1023,1022,903
L,-50.33690091786463,52.974193766905564,-27.477489296663805,-0.6973300031660041,1.6119534245611575,0.0838991100010555,-0.88818359375,-0.30322265625,0.09326171875,880,1021,1022,1023,1023
Z,-133.69696652632476,73.83766288792596,-110.64683407270142,17.117083686740173,9.993214588634434,6.486853265479221,-0.715087890625,-0.649169921875,-0.06591796875,731,709,1023,1021,1022
Y,-108.53143887639897,76.30503334493167,-74.5626329198261,0.3129067435888416,-0.1458824357125268,-0.6400605058571074,-0.947998046875,-0.20947265625,-0.22216796875,853,1021,1021,1023,779
K,-54.28080264117607,55.46967222057852,-29.26803009601398,-3.265231834888324,-3.186669493921402,-1.7102417302798982,-0.90771484375,-0.2548828125,-0.287841796875,516,655,829,1023,1022
E,-9.049231341991296,25.90355367694613,-1.0474905164483244,-0.232595771625567,-0.8905617898476801,0.0716220494600207,-0.93798828125,-0.208251953125,-0.05712890625,1023,1022,1023,1021,903
K,-37.386890096093225,44.42906842656595,-16.691200266174842,-0.7945292620865141,0.5960206389595704,-0.006750070681369,-0.505859375,-0.546875,-0.828369140625,501,777,745,1021,1023
H,-47.72733421484277,48.76212697551673,-24.74606494355577,1.1537622682660855,-1.417349702747388,-0.2996095261547122,-0.212890625,-0.96826171875,-0.37548828125,458,806,657,1022,1023
C,-6.677460402794832,16.821337680884657,-0.6113873257168773,-0.1834171738136277,0.7675801174939318,-0.8097935061737078,-0.807373046875,-0.39697265625,0.1591796875,573,963,867,891,367
U,-61.19550465366257,76.77469565070868,-30.29188655798262,0.1765574981531646,-0.553558236887466,-0.4086256024202344,-0.907958984375,-0.145263671875,0.13818359375,695,871,1023,1022,1021
F,-13.066051721288805,36.8677339617998,-3.131219838394154,-0.6293312695676644,0.3433003834382805,-0.670946635241144,-0.938232421875,-0.156005859375,-0.0576171875,521,1022,1022,1022,440
V,-69.66251485395462,78.3249168990527,-38.35984897779032,-1.684490097442572,-2.1689239103669045,-0.7439054420093574,-0.94287109375,-0.20458984375,-0.009765625,810,666,1023,1022,979
A,-0.907590939554818,2.930058159580249,0.0091783550322023,-0.324832025890878,0.0729939845921131,0.3783023182185941,-0.919677734375,-0.268798828125,-0.10595703125,608,1022,1022,1023,1023
V,-89.7236419357236,78.49377204480727,-57.73529787734203,0.2226052696380199,-4.0957540366552925,-0.7028177436943749,-0.935546875,-0.2021484375,-0.01904296875,752,687,1015,1022,976
Y,-106.96335835001489,76.5039557883711,-73.10733541071303,-0.3893833327470362,-1.222218313575122,-0.8690681394448938,-0.9306640625,-0.20849609375,-0.23193359375,851,1022,1023,1023,786
V,-86.62807458721082,78.57442047149468,-54.76535383100499,-1.5331199212016746,-0.9125479297850634,-0.7409856826256725,-0.925048828125,-0.19482421875,-0.033935546875,758,696,1022,1023,977
B,-0.353563725966757,0.1450463323734599,-0.0784551085909324,0.2941071555967755,-2.6793179710351738,-0.6728615252907185,-0.550048828125,-0.47705078125,0.474609375,837,395,587,458,246
Z,-127.42539628419968,75.80591186519266,-97.21407832840396,13.552198190556966,11.397794741306187,6.975402883799831,-0.731689453125,-0.6240234375,-0.052001953125,740,716,1022,1021,1023
S,-63.33393415754789,68.45992672556028,-32.64872003342611,-0.6587751081718086,-0.3578640025328032,-0.468287191754317,-0.9521484375,-0.08056640625,-0.088134765625,1005,1023,1022,1023,1023
N,-64.61031965657226,67.0376950949429,-34.12643107654087,-0.1290322580645162,1.2763569845569354,-0.5428641784219229,-0.931640625,-0.1943359375,-0.06103515625,1023,1021,1022,1023,1023
K,-53.831854688582894,55.53979491317831,-29.322082413094712,-4.639277636415041,-1.6217839977381965,-0.6797073791348601,-0.9375,-0.25390625,-0.2861328125,516,668,831,1023,1023
I,-28.65981932548782,41.5340215369034,-12.489346988773113,1.4202714164546226,-4.926314673452078,-5.439496748657055,-0.9208984375,-0.168701171875,-0.11474609375,581,1023,1023,1023,775
S,-62.10911614160016,66.72987246418177,-31.648377023834577,0.1755021634361694,0.7161501389524045,0.5367432370633552,-0.94384765625,-0.104248046875,-0.05810546875,1007,1023,1023,1023,1021
K,-41.13072452294069,46.64829473714958,-19.510746942831293,1.4588634435962686,-0.4467769296013564,1.000141362736782,-0.604736328125,-0.54150390625,-0.70751953125,527,625,667,1023,1021
P,-67.9723389841435,59.15253741309845,-37.045543580275776,0.3623480350579587,-0.3776152106304785,-0.2120794458580717,0.42578125,-0.27587890625,0.726318359375,654,535,827,776,725
Q,-73.48157477969829,62.49072671094511,-41.79651464101603,-0.0967390157244874,0.5528898582333694,3.0351074682520145,0.792724609375,-0.247314453125,0.435302734375,771,619,1023,1023,991
O,-77.43920039846432,67.2290655674847,-46.24318912502567,0.136982446265874,-0.570936081893974,-0.1677982200021099,-0.817626953125,-0.495849609375,-0.12109375,774,1021,1022,1023,831
J,-36.56590010522321,43.639695928610855,-16.301968701451894,-0.6228795589482612,-1.778767316935256,-0.6709782301385361,-0.845947265625,-0.458251953125,-0.243896484375,907,1023,1018,1023,1023
N,-64.31842315166695,66.96535001809103,-33.89240098482112,-2.5336124107362723,-0.1282231681148204,-2.123016850177648,-0.924072265625,-0.20068359375,-0.058349609375,1023,1022,1023,1023,1023
D,-8.098667462623865,22.11917015739625,-0.8686040417435464,0.7563583916698907,-0.7346888521476064,0.5165863439687617,-0.94970703125,-0.1826171875,-0.033203125,680,656,1021,1022,918
G,-18.336057775274053,38.67583839594516,-6.261006653924539,-0.073908608013508,-1.869455095507792,0.8285432863123088,-0.2333984375,-0.93310546875,-0.453857421875,646,899,1023,1023,1023
R,-66.03010902212542,62.0954297722081,-35.58463296510818,-1.1041136556403732,2.0483460559796445,-0.3931651116765626,-0.873291015625,-0.185791015625,0.1962890625,403,636,1023,1023,1023
R,-60.357381097938855,64.2413244211351,-30.093222712817745,0.2286188860616341,-0.7597540288379986,0.4711266610121569,-0.84130859375,-0.21484375,0.2421875,574,633,1023,1023,907
E,-9.276093648951962,26.854778854220136,-1.172232536844812,0.8895416329545857,1.0636366834347628,0.4609350265592573,-0.927490234375,-0.207275390625,-0.031005859375,1023,1022,1022,1023,901
K,-44.46341094564528,48.183874096822194,-22.14844183354753,-0.8410314137967425,1.0497414429943364,0.8431420832307319,-0.543212890625,-0.632568359375,-0.71240234375,429,680,693,1022,1022
U,-67.68384867162986,76.0041115099747,-36.795112208347255,-1.281457769022408,-1.103176557498153,0.0035881380377809,-0.910888671875,-0.14599609375,0.11865234375,705,881,1023,1022,1023
G,-17.70509288448024,38.58134479476456,-5.856528542162643,-1.4326872339677066,-0.6404474619200057,0.3094593168466599,-0.232177734375,-0.916015625,-0.444580078125,644,899,1022,1022,1021
H,-26.04470684950412,38.72644059818284,-11.183160431298068,0.229148344883386,-0.163928659373131,-0.6311605164104547,-0.161376953125,-0.974609375,-0.260498046875,446,765,806,1023,1023
H,-49.09541128056532,48.61966891247113,-25.829957162191427,1.5965103598691393,2.2467724346571925,0.5935202448376541,-0.23095703125,-0.948974609375,-0.3447265625,460,805,659,1021,1022
T,-68.52147136999201,73.54190234426643,-37.61333952892814,0.3497314108001129,-1.7586584676279335,-0.0559796437659037,-0.93408203125,-0.1376953125,-0.004150390625,860,1022,1023,1022,1023
K,-53.225325731697765,55.408404213627456,-29.309425617827188,-2.921720384506644,-3.1179672038450663,-0.7560432569974556,-0.9287109375,-0.257080078125,-0.27294921875,519,665,836,1023,1023
B,-4.045204853620598,2.2549378958562616,-0.2559292725656304,-0.6583348127108114,2.914468311734421,-1.439552636250666,-0.392578125,-0.65478515625,0.453857421875,819,289,377,464,146
N,-67.87349081007662,68.18424572899639,-36.75974764952929,-0.4191085939423788,0.3603264502057902,-0.6879023463608541,-0.91943359375,-0.206787109375,-0.05859375,1023,1022,1022,1023,1021
A,-0.604557057180858,2.0648909283513377,-0.0100279862244065,0.2782214092236258,-0.1102121222781158,-0.0949801245294974,-0.916015625,-0.273193359375,-0.1240234375,611,1021,1021,1021,1022
I,-28.44383749859692,41.80165400365095,-12.342287566863767,-2.182782018659881,-11.659139100932997,-8.088351710489114,-0.95654296875,-0.119140625,-0.155029296875,643,1023,1023,1022,773
K,-41.73252858110167,47.12646164285676,-20.04941854393859,0.8558100084817648,-2.019296013570822,0.786400904721515,-0.59521484375,-0.58056640625,-0.68017578125,511,610,653,1020,1022
N,-65.06703179754152,67.20366246806881,-34.51115955573169,-0.3580398916523025,0.1084180532592253,-1.0619481478875716,-0.930419921875,-0.202880859375,-0.050537109375,1023,1022,1017,1023,1023
O,-79.05365314294669,67.01323233450094,-47.796527685399816,0.770570232525416,0.4214303303197664,-0.4273402047349344,-0.833251953125,-0.4794921875,-0.1142578125,768,1022,1023,1023,825
U,-66.97837660127917,78.12291177487738,-35.83961747220808,-0.2502198613993741,0.0180462236606043,0.0946987019382982,-0.943115234375,-0.148681640625,-0.001220703125,798,686,1023,1023,1022
J,-35.21193835166182,42.39761479255626,-15.663769579457629,-0.4473070398642917,0.7632174158891716,0.7488690981057387,-0.8408203125,-0.44482421875,-0.275390625,924,1022,1018,1023,1022
M,-60.371086276606015,59.66301998185027,-31.75036760073488,-0.8307534633870505,-1.402070964093865,0.9233813966638392,-0.927978515625,-0.1845703125,-0.04638671875,1023,1021,1021,912,1023
F,-12.957347681201258,36.27874859281257,-3.015276168961145,1.2943328525697404,-3.030745418088437,0.3214197769725964,-0.9404296875,-0.152587890625,-0.052001953125,533,1021,1021,1023,441
E,-8.986172656998304,25.68385153555253,-1.0540339100840084,0.0193126253209978,-1.7684243852675272,-0.1344848207689868,-0.946533203125,-0.206787109375,-0.0625,1021,1022,1022,1022,904
P,-79.86110164754302,65.45544692034977,-48.63291635276256,0.4709146169069831,-0.0273890302516258,1.0740740740740735,0.309814453125,-0.455322265625,0.682861328125,768,691,1021,1023,884
K,-45.55726250021143,48.62675135907079,-23.01392366632149,-1.1311077496746051,0.6375277025363211,0.7439054420093579,-0.552734375,-0.62451171875,-0.703125,427,675,692,1023,1023
L,-50.26887929553564,50.10625396393703,-27.146867012320783,1.1363140676117776,-0.6591972420586061,1.4099271819045271,-0.87451171875,-0.19091796875,0.1796875,928,1015,1021,1023,1023
B,-4.750026927275681,2.863721484923972,-0.1578252064015639,0.1737262559914786,3.1816438842535053,1.8047221729096397,-0.40380859375,-0.664794921875,0.467529296875,817,290,379,464,146
X,-101.72779987587678,76.7709415545118,-68.6679728372583,-3.4714447271699176,0.351003675431156,1.0882103477523308,-0.784912109375,-0.3818359375,0.237548828125,981,975,1023,1022,974
K,-42.91048307054091,47.53003368577688,-20.82600472256932,-0.6120237802089563,0.5459246491012065,-0.1950258557005657,-0.5498046875,-0.606689453125,-0.72607421875,435,691,693,1021,1023
Q,-74.66455866870722,63.18728576590964,-43.05461817973392,-0.4915397333520948,-0.5236570865726248,0.2531396207830581,0.655029296875,-0.25048828125,0.5751953125,936,742,1023,1023,1023
Z,-132.2328353143245,74.49179048889152,-106.77834678053192,14.926243992083684,11.970313825275657,4.021204410517388,-0.727294921875,-0.64013671875,-0.06396484375,735,713,1021,1023,1021
B,-3.945728776792292,9.745233457647911,-0.0265748725050288,-0.0991662855735739,0.7512576072044183,0.0589228550321886,-0.944091796875,-0.165771484375,-0.1064453125,1013,1001,1023,1023,368
D,-7.99125525351786,20.58601635186257,-0.95097565701744,-1.449748478559117,-0.4675132796285224,-0.9337953354205516,-0.929443359375,-0.17529296875,-0.045166015625,678,659,1017,1023,916
H,-48.67989461420997,48.67447219773375,-25.496219469809155,0.9323882224645592,0.4376121293136807,-0.1927392971470787,-0.235595703125,-0.939208984375,-0.35107421875,458,807,661,1023,1023
K,-39.27523949179991,45.58572207711342,-18.173850012673427,0.419211195928753,0.985333616058807,-0.1670554141928193,-0.495361328125,-0.546875,-0.825927734375,499,765,741,1021,1022
A,-0.6569307054058662,2.236194227123744,-0.0129058810664749,0.0950153023533968,0.0271924578745558,-0.171316002392093,-0.9306640625,-0.275634765625,-0.098876953125,612,1023,1021,1022,1023
K,-56.124198750758936,55.55625404320708,-29.633230405699763,1.1282231681148205,0.0906884300137193,0.1199563794983641,-0.933837890625,-0.2265625,-0.294677734375,542,659,658,1023,1022
I,-26.64175723772696,39.5637636529796,-11.574529542952948,2.689450170612446,-1.910894572061772,1.8480318007528047,-0.94970703125,-0.09912109375,-0.149169921875,875,1015,992,1022,1007
S,-61.59771930685041,66.19711316616653,-31.177362662277183,1.0915326977873143,-0.1617124564674427,0.5520104126358742,-0.95068359375,-0.081298828125,-0.04345703125,1008,1023,1023,1023,1023
I,-28.640238539819556,41.57122554784517,-12.448888520722384,-4.495759117896522,-11.39959711620017,-9.17232117613797,-0.927734375,-0.180908203125,-0.144287109375,593,1023,1023,1022,780
S,-63.30839159053068,68.54764325799628,-32.62267990510258,0.6007668765610158,-1.5487036971892918,0.2340028845815608,-0.957275390625,-0.079833984375,-0.072509765625,1000,1023,1023,1022,1023
N,-62.97618807857523,66.1905883558384,-33.00460050745462,0.2924795024031665,-0.2094642352275941,-0.127261803788521,-0.94189453125,-0.127685546875,0.003173828125,1021,1023,996,1022,1023
H,-49.438531498127496,48.58052584350812,-26.191641939867765,1.4972737186477652,0.498680831603757,0.0133675730819289,-0.233154296875,-0.9365234375,-0.3427734375,460,805,662,1023,1021
X,-104.33173030950864,77.27723355582245,-71.52794446976822,0.4860050890585242,-2.1274385072095,-0.519296013570823,-0.832763671875,-0.342041015625,0.18115234375,736,1022,1023,1023,1022
B,-0.6592006857733065,0.1885948292091281,-0.1581027947108574,0.5918170792608977,-2.641150032103876,-0.2835485481914819,-0.552001953125,-0.467529296875,0.48583984375,837,386,573,456,244
Q,-75.3148497706482,63.477942390499926,-43.77761395459941,-0.0716924051078199,-2.149611285045907,-2.014035951736026,0.659423828125,-0.245361328125,0.589599609375,937,747,1021,1023,1022
D,-8.797735947643464,24.80076783840335,-1.014915678045068,-1.0461549335595135,-2.200275657336726,0.6670200735086236,-0.93505859375,-0.153076171875,-0.057373046875,684,704,993,1021,739
O,-76.78640193115389,67.32722865211302,-45.59959324790203,0.4117916065712176,0.7420410173426673,0.0459422380131573,-0.827880859375,-0.4921875,-0.12060546875,773,1023,1022,1023,830
D,-7.801698110133351,19.175536775356807,-0.994232594024692,-3.045168325887361,-0.4293453406972247,0.058571076793189,-0.936279296875,-0.182861328125,-0.050537109375,686,666,1023,1023,917
W,-100.25417689245496,77.58668533087362,-67.94708124798942,-0.0823512857494638,0.4455974953389383,-0.0149505751574211,-0.948486328125,-0.18017578125,-0.1494140625,940,539,1021,1022,1023
U,-67.60185039848018,78.21759229597684,-36.41885329415585,-0.2044183346818169,-2.4018011045836705,-0.3785837408097933,-0.926513671875,-0.151611328125,-0.021728515625,797,684,1022,1023,1023
J,-33.72649471949464,41.37545702866597,-14.76667314091506,0.866553576477241,-0.6918999151823579,0.1738054848741873,-0.7880859375,-0.536376953125,-0.160400390625,920,1023,1005,1023,1022
A,-2.173344640690625,4.881536436554179,-0.0288157627689902,-0.349597213916347,0.8063812572554261,0.2709044218524643,-0.8994140625,-0.33056640625,-0.120849609375,543,1023,1022,1021,1021
J,-32.79132932106928,40.77096589558635,-14.166118605302726,-0.3548204693242858,-0.98960983884648,-0.6353548204693242,-0.807861328125,-0.5302734375,-0.142333984375,919,1023,1006,1023,1021
J,-33.36058906923683,41.13712969673738,-14.530259946547927,-0.4387899349731407,-1.6766327396098388,-0.7498586372632172,-0.80615234375,-0.532470703125,-0.164794921875,922,1022,1005,1022,1021
F,-12.81385342198941,35.83562636237578,-2.9339687521807964,1.065325218981954,0.4959721391634714,0.2908854258275582,-0.947509765625,-0.161865234375,-0.049072265625,528,1023,1022,1021,441
N,-64.5346988192624,67.01059667323715,-34.052585653718424,-0.8542230977591728,-2.1053224047560417,-1.3672916593379534,-0.95166015625,-0.191162109375,-0.055908203125,1023,1022,1022,1021,1023
P,-80.35130052081836,65.64119625653218,-49.04875348592585,-0.0863372914899635,-0.0197554424653663,-1.116765620582415,0.33837890625,-0.457763671875,0.702880859375,768,694,1022,1022,882
B,-3.3912879388318755,1.64647116497705,-0.3188185448956034,-3.994212675306231,0.6014912124977799,0.3085389668027691,-0.4033203125,-0.6591796875,0.4453125,827,288,379,465,147
G,-15.360305433749028,38.00614734520016,-4.390225577354325,-0.7513983185000177,2.228479966229289,0.2864178421922815,-0.210205078125,-0.940185546875,-0.362548828125,380,752,1021,1023,1023
X,-101.80651826918532,76.7723999454418,-68.9456958376927,-1.318772971444727,2.4655074922250493,1.7141645462256132,-0.78759765625,-0.38232421875,0.244384765625,984,973,1023,1021,975
