label,roll,pitch,yaw,gx,gy,gz,ax,ay,az,flex0,flex1,flex2,flex3,flex4
B,-0.01773649866182991,0.028358865105832333,0.003419667112287542,0.5918170792608977,-0.11443247485196784,0.34240565028180053,-0.566650390625,-0.454345703125,0.489990234375,850,384,598,462,247
B,-0.05333515488016675,0.04473738811896849,-0.010803280331431563,-1.1028394092887206,-1.2365698794321205,-1.4209531283441534,-0.55224609375,-0.4716796875,0.490966796875,848,389,601,461,245
B,-0.07236715953428785,0.053286073715765644,-0.015014972103559348,0.5765499036883786,-1.9999286580580746,-0.42095312834415366,-0.56103515625,-0.4873046875,0.49267578125,850,390,599,461,244
B,-0.08165833050582481,0.04551610586948689,-0.0017959402036332487,1.5231147891845618,-3.6564172076763954,1.319504886923022,-0.561279296875,-0.478759765625,0.49755859375,849,389,595,459,247
B,-0.09808186260612342,0.048863136366498965,0.003935330769831767,0.7673895983448671,-2.5800813298138,0.5714132838695868,-0.5615234375,-0.46484375,0.495361328125,849,387,600,461,245
B,-0.10210971141228417,0.06095480167670193,0.0010314440814850132,2.019297995291432,-1.694585146607693,-0.29118213597774145,-0.5498046875,-0.458984375,0.512451171875,846,396,596,460,246
B,-0.12653540464767557,0.073668214444393,-0.013407089122790865,0.004030819718912948,-1.6106156809588381,-1.4438538917029322,-0.552001953125,-0.46826171875,0.498291015625,846,399,596,458,244
B,-0.14996402230990244,0.09787156067533224,-0.03344525011437256,0.13380181208532516,-0.4350431618748687,-2.0011058000998787,-0.55126953125,-0.477294921875,0.480224609375,846,406,596,461,245
B,-0.17254025562075778,0.08703376547684588,-0.03614044791801424,0.1948705143754015,-3.9617607191267767,-0.27591496040522234,-0.550537109375,-0.469482421875,0.46875,843,405,593,457,245
B,-0.19712257117735185,0.08301992807872677,-0.034869103891392514,0.026931583077691557,-3.2518370550046396,0.12103160448027384,-0.54638671875,-0.477294921875,0.48828125,841,399,591,460,245
B,-0.21710146315759435,0.11185481510443421,-0.0368286224141294,0.43914532353570684,-0.007562245844334292,-0.19194549475636735,-0.560791015625,-0.4736328125,0.48974609375,846,400,593,457,245
B,-0.25782058097097915,0.11981196969944859,-0.04642769474308651,-1.660091317685667,-2.114432474851968,-0.9629378611685812,-0.56201171875,-0.4658203125,0.48486328125,843,400,594,457,247
B,-0.2666465132198154,0.13780027487948604,-0.048426168302850396,1.5460155525433406,-1.0991652992794487,-0.1995790825426269,-0.552490234375,-0.464111328125,0.486328125,843,400,593,456,246
B,-0.3181603302055251,0.13384654680041808,-0.06803675750302168,-2.6982592566169648,-3.267104230577159,-1.9705714489548405,-0.56396484375,-0.48046875,0.495849609375,843,399,590,459,247
B,-0.331763338489562,0.14326767093445122,-0.0718195762099721,1.1490689876578442,-1.8854248412641816,-0.382785189412856,-0.5615234375,-0.49951171875,0.496826171875,839,394,588,458,244
B,-0.353563725966757,0.14504633237345999,-0.0784551085909324,0.2941071555967755,-2.6793179710351738,-0.6728615252907185,-0.550048828125,-0.47705078125,0.474609375,837,395,587,458,246
B,-0.3522779108157922,0.16067195878272078,-0.07752410084454565,2.4925804380395236,-1.3892416351573114,0.09049725333523567,-0.577392578125,-0.464599609375,0.4931640625,846,395,588,458,249
B,-0.3878921178871043,0.15815200175862798,-0.08489209530904386,-1.1028394092887206,-3.1220660626382273,-0.7491974031533141,-0.560791015625,-0.48095703125,0.4697265625,840,394,586,456,246
B,-0.410066453638407,0.17029449530461413,-0.09143121415185317,0.3017407433830351,-1.6029820931725784,-0.6575943497181994,-0.53076171875,-0.4755859375,0.4853515625,841,392,585,459,247
B,-0.44903214632660965,0.17026164156702317,-0.12603960032956812,-1.4692516230291788,-2.8854248412641814,-3.4743882428479704,-0.564453125,-0.471435546875,0.4892578125,841,392,585,459,248
B,-0.47881093316202405,0.17380780217921135,-0.12813995687872765,-0.530320325319255,-2.526646215309983,-0.22247984590140557,-0.554931640625,-0.4736328125,0.49462890625,839,389,585,458,247
B,-0.4974577310017078,0.1684147237556879,-0.13137448347849026,0.5918170792608977,-3.4121423985160897,-0.3446172504815582,-0.54931640625,-0.471923828125,0.49462890625,838,390,582,457,246
B,-0.523822158260637,0.17854270669725125,-0.12687577019159338,-0.13337376043375881,-1.8243561389741052,0.4416422915031746,-0.54736328125,-0.48681640625,0.4853515625,838,391,582,457,246
B,-0.5482542306428669,0.1816191160765677,-0.13069783395563972,0.004030819718912948,-2.5724477420275402,-0.398052364985375,-0.5517578125,-0.47119140625,0.487060546875,833,388,578,456,247
B,-0.5832706938630203,0.18119728019575065,-0.13707201115904993,-1.049404294784904,-2.9159591924092196,-0.6575943497181994,-0.55224609375,-0.47314453125,0.48291015625,839,389,575,457,245
B,-0.6052776762334089,0.18163762683931026,-0.14885405147515018,0.22540486552043967,-2.8472569023328838,-1.199579082542627,-0.558837890625,-0.469970703125,0.495361328125,841,389,574,457,248
B,-0.6407975898865403,0.18607579389259757,-0.15548349788175111,-1.0799386459299418,-2.41214239851609,-0.6804951130769782,-0.5537109375,-0.481689453125,0.513671875,838,387,575,456,244
B,-0.6592006857733065,0.18859482920912818,-0.15810279471085742,0.5918170792608977,-2.641150032103876,-0.2835485481914819,-0.552001953125,-0.467529296875,0.48583984375,837,386,573,456,244
B,-0.6853137508107158,0.18183157840135106,-0.1634354406162132,-0.14100734822001837,-3.5342798030962426,-0.565991296283085,-0.554443359375,-0.482177734375,0.4990234375,836,385,572,454,244
B,-0.705690170366604,0.18752380848787192,-0.16714363492109668,0.4238781479631878,-2.2976385817221967,-0.39041877719911544,-0.54931640625,-0.475341796875,0.50341796875,839,386,573,455,245
B,-0.7267321561159803,0.20560953072504998,-0.16909978593340463,0.4086109723906687,-1.0151958336305937,-0.1995790825426269,-0.5322265625,-0.477783203125,0.497314453125,839,386,569,455,247
B,-0.7580363513232999,0.210997308417772,-0.17271012020585091,-0.7516943711207816,-2.396875222943571,-0.382785189412856,-0.563720703125,-0.460693359375,0.49951171875,840,386,570,457,247
B,-0.8010316136635316,0.21282445775941203,-0.18756671809667425,-1.8738317757009342,-2.7022187343939525,-1.512556181779268,-0.556640625,-0.46875,0.494140625,834,386,569,455,246
B,-0.8285986142657396,0.202797623881708,-0.1709368148574254,-0.32421345509024735,-3.9159591924092196,1.6172148105871442,-0.552734375,-0.471923828125,0.50634765625,840,382,568,456,248
B,-0.8516465729343241,0.20414651429412728,-0.17117162195311092,0.1414353998715847,-2.7480202611115097,-0.054540914603695645,-0.543212890625,-0.466552734375,0.496337890625,838,381,564,458,248
B,-0.8585475949091373,0.2102451183416645,-0.17046388263935924,1.6910537204822718,-2.328172932867235,0.0446957266176784,-0.55859375,-0.458740234375,0.484375,838,384,567,454,244
B,-0.8867382865517861,0.21362507344281262,-0.1807921607135323,-0.39291574516658323,-2.5495469786687615,-1.0621745023899551,-0.54833984375,-0.46337890625,0.491943359375,836,384,565,454,247
B,-0.9120419101900293,0.22786493779081501,-0.1912837577814833,-0.07993864592994199,-1.4426767496611281,-1.0621745023899551,-0.551513671875,-0.47412109375,0.497314453125,839,380,564,456,249
B,-0.9395536168828976,0.23425225592700571,-0.19676520981075396,-0.2860455161589497,-2.2213027038596014,-0.5736248840693445,-0.54248046875,-0.471923828125,0.495361328125,838,383,565,453,246
B,-0.95668684148027,0.2389387114550744,-0.19594734126151064,0.736855247199829,-2.41214239851609,0.052329314403937954,-0.546142578125,-0.47119140625,0.49462890625,838,382,565,455,248
B,-0.9848728926178989,0.24187758021627676,-0.1956208966477232,-0.4158165085253619,-2.6258828565313572,-0.001105800099878873,-0.55615234375,-0.46435546875,0.494140625,837,382,563,455,247
B,-1.0137315358300272,0.24475945819775122,-0.20017591266456744,-0.43871727188414045,-2.5877149176000596,-0.48965541842048954,-0.54736328125,-0.470947265625,0.501708984375,836,381,563,453,247
B,-1.0430608877961767,0.2519914220864376,-0.2126491371691252,-0.5455875008917741,-2.190768352714563,-1.2759149604052222,-0.557373046875,-0.459228515625,0.4970703125,842,381,563,452,244
B,-1.070958185764952,0.24503048869359872,-0.21953127058315972,-0.2860455161589497,-3.5190126275237237,-0.7415638153670544,-0.54443359375,-0.487060546875,0.48486328125,840,382,564,454,247
B,-1.0961857917135547,0.25200805904565243,-0.22534217952038652,-0.10283940928872065,-2.1984019405008226,-0.6117928230006422,-0.56005859375,-0.47314453125,0.48974609375,838,382,563,452,248
B,-1.1260001311210666,0.26281029837701325,-0.2255825383806947,-0.5074195619604763,-1.7785546122565479,-0.04690732681743609,-0.540283203125,-0.47509765625,0.495361328125,839,383,564,454,248
B,-1.1563719294856594,0.26182942656424896,-0.22734338816651353,-0.5455875008917741,-2.9388599557679984,-0.22247984590140557,-0.53369140625,-0.47509765625,0.49462890625,839,383,563,454,245
B,-1.1602830175610312,0.2752432019703633,-0.2276075225356592,2.0269315830776917,-1.5648141542412808,-0.04690732681743609,-0.552734375,-0.468505859375,0.52978515625,835,381,562,452,245
B,-1.2186895111001121,0.2816823496182412,-0.23209428914901906,-3.4005493329528425,-2.2365698794321207,-0.48202183063423,-0.541748046875,-0.46533203125,0.510498046875,839,383,562,452,247
B,-1.226256038545544,0.31535453885918013,-0.24232026333177054,1.6376186059784548,0.458086609117498,-1.0011058000998787,-0.545654296875,-0.453369140625,0.49267578125,835,380,563,452,249
B,-1.2511036514317875,0.3128541433195244,-0.24789629349051898,-0.06467147035742293,-3.144966825997006,-0.6117928230006422,-0.55810546875,-0.472412109375,0.497802734375,836,379,562,449,246
B,-1.2771566082049672,0.3248287898126909,-0.2624853754746501,-0.16390811157879692,-1.6640507954626549,-1.4820218306342299,-0.560791015625,-0.47998046875,0.4853515625,838,382,563,451,249
B,-1.2956367146909622,0.3280558819227501,-0.27077806068219656,0.637618605978455,-2.511379039737464,-0.8713348077334667,-0.549072265625,-0.486083984375,0.492919921875,834,382,562,452,247
B,-1.3329728456128311,0.3241938086178048,-0.27857392861826913,-1.3394806306627665,-3.2976385817221967,-0.8408004565884285,-0.5625,-0.46728515625,0.468994140625,836,379,559,451,248
B,-1.3501744737357895,0.31662742925964826,-0.2827586304219887,0.7139544838410503,-3.6411500321038766,-0.48965541842048954,-0.5478515625,-0.46923828125,0.484375,836,382,560,451,248
B,-1.3750604902659211,0.3208087430174628,-0.2878926496916671,-0.06467147035742293,-2.473211100806166,-0.5583577084968254,-0.550537109375,-0.468505859375,0.497314453125,834,381,560,451,246
B,-1.4122905274509934,0.3376521526448116,-0.30547475540158964,-1.2631447528001711,-1.1526004137832655,-1.7720981665120923,-0.549072265625,-0.47705078125,0.51318359375,835,380,561,451,249
B,-1.4413463733558547,0.3597963761998729,-0.30311171400804404,-0.4310836840978809,-0.6487836198901358,0.23553542127416696,-0.547607421875,-0.484130859375,0.486083984375,834,382,560,451,246
B,-1.4673162807075835,0.3628432486824959,-0.3035410769514616,-0.16390811157879692,-2.5877149176000596,-0.09270885353499336,-0.548828125,-0.471435546875,0.50146484375,834,378,561,449,248
B,-1.4615625987755307,0.35330814270077215,-0.29798866525544226,3.0116644075051724,-3.8548904901191436,0.47217664264821274,-0.545166015625,-0.470947265625,0.509033203125,832,378,560,450,247
B,-1.543974659105123,0.3821160001242758,-0.3300100183685764,-5.789862310052079,0.06877363201826103,-3.1843119069701076,-0.539306640625,-0.463134765625,0.50634765625,831,381,557,449,247
B,-1.5588067153411291,0.4050309326225532,-0.33712701571435794,0.9582292930013557,-0.5800813298137999,-0.7110294642220162,-0.55517578125,-0.478271484375,0.478515625,837,376,557,448,249
B,-1.6025450191574542,0.4080414762582413,-0.35051717927257986,-1.8890989512734535,-2.5190126275237237,-1.3904187771991157,-0.54296875,-0.480224609375,0.464111328125,833,381,556,447,246
B,-1.6147953214504078,0.40370991148975727,-0.3480891091028278,1.2025041021616611,-3.3358065206534944,0.16683313119783108,-0.54833984375,-0.470703125,0.488037109375,834,374,550,448,247
B,-1.6322952675442541,0.4142094205352638,-0.35346842843573245,0.6452521937647144,-1.8625240779054029,-0.5736248840693445,-0.556396484375,-0.465576171875,0.491943359375,834,378,553,447,245
B,-1.6572597337850778,0.425512127653327,-0.3667432698362613,-0.07230505814368249,-1.7403866733252502,-1.3598844260540774,-0.550537109375,-0.46826171875,0.49853515625,835,376,552,448,248
B,-1.6908291980943357,0.42171094735928194,-0.3692642219832326,-0.9425340657772702,-3.282371406149678,-0.3293500749090391,-0.5576171875,-0.4736328125,0.49609375,835,382,555,447,249
B,-1.6896287385712427,0.43174849709854435,-0.36448834615361186,2.6147178426196764,-1.8472569023328838,0.4416422915031746,-0.533447265625,-0.481201171875,0.49365234375,836,377,554,450,248
B,-1.7258937727515575,0.43133789711145687,-0.3663243027514002,-1.232610401655133,-2.9617607191267767,-0.2530141970464437,-0.55908203125,-0.468994140625,0.5087890625,835,375,552,448,249
B,-1.7427600311318108,0.4509766740022866,-0.37098223244173434,0.7673895983448671,-0.9006920168367007,-0.47438824284797043,-0.540283203125,-0.471923828125,0.50048828125,835,378,550,448,246
B,-1.7699037680285268,0.461692093312147,-0.3713951260831983,-0.2860455161589497,-1.8243561389741052,-0.07744167796247425,-0.548828125,-0.47216796875,0.50927734375,834,376,550,449,248
B,-1.7921088482724443,0.49192865517522477,-0.3832455545024274,0.18723692658914196,0.13747592209459691,-1.1614111436113292,-0.540771484375,-0.4560546875,0.5029296875,833,376,549,448,247
B,-1.8202952863492354,0.5052065685256181,-0.3953457562265379,-0.39291574516658323,-1.5419133908825022,-1.2377470214739246,-0.55126953125,-0.4697265625,0.486328125,833,374,549,449,249
B,-1.8602864731486053,0.5245479152860537,-0.4069519302519891,-1.5761218520368123,-0.9388599557679984,-1.1690447313975887,-0.550048828125,-0.46826171875,0.495361328125,835,375,547,447,247
B,-1.8845477487990532,0.5284558466058394,-0.4119580370985128,0.03456517086395111,-2.4655775130199067,-0.5583577084968254,-0.543212890625,-0.4765625,0.49072265625,832,374,548,448,246
B,-1.9146320732556634,0.5407043248571967,-0.4211836538868167,-0.5990226153955909,-1.6640507954626549,-0.9553042733823215,-0.5498046875,-0.464599609375,0.488525390625,833,381,548,447,247
B,-1.9421256451839657,0.5494347790471198,-0.43103947345856414,-0.37001498180780457,-2.0380965969893725,-1.031640151244917,-0.560546875,-0.4638671875,0.4873046875,832,378,548,448,246
B,-1.964079196609225,0.5642297720713487,-0.4388230684698147,0.2330384533066992,-1.3968752229435708,-0.8026325176571308,-0.553955078125,-0.47509765625,0.501708984375,831,377,550,448,248
B,-1.9933231970614647,0.582542327789194,-0.4465112631180283,-0.46925162302917867,-1.0228294214168534,-0.7797317542983521,-0.544677734375,-0.4755859375,0.487548828125,835,376,548,448,247
B,-2.033243103104092,0.6207709766049162,-0.4461013173956091,-1.5913890276093312,0.900834700720551,0.09813084112149517,-0.556640625,-0.470947265625,0.490234375,834,374,546,446,244
B,-2.075362677054997,0.6275434016993171,-0.45414889545592013,-1.7669615466933006,-2.1831347649283037,-0.8560676321609476,-0.55029296875,-0.476806640625,0.482421875,833,375,548,449,248
B,-2.0835606634120882,0.6600389690724766,-0.45601898208669284,1.6376186059784548,0.3817507312549022,-0.14614396803881013,-0.550048828125,-0.4833984375,0.492431640625,837,376,549,449,250
B,-2.117195292997282,0.681486555244489,-0.4723700096281432,-0.9654348291360489,-0.7327530855389908,-1.6346935863594205,-0.557861328125,-0.465576171875,0.501708984375,834,376,546,447,248
B,-2.13438151841301,0.6998387049155806,-0.4870885101460504,0.6986873082685312,-1.0304630092031128,-1.4820218306342299,-0.538330078125,-0.456298828125,0.50634765625,836,380,547,448,246
B,-2.1896122651679617,0.7033905688591839,-0.4981366421013876,-3.0875722337162013,-2.5037454519512043,-1.1690447313975887,-0.556640625,-0.478271484375,0.496337890625,836,381,548,450,248
B,-2.195791863583219,0.7265244712077136,-0.49174919149957663,1.8437254762074624,-0.5724477420275405,0.6477491617321822,-0.54248046875,-0.48193359375,0.48681640625,832,383,547,448,247
B,-2.242744762041047,0.7208663725937667,-0.4924666419855049,-2.3318470428765066,-3.511379039737464,-0.17667831918384835,-0.5634765625,-0.46533203125,0.4921875,834,384,548,448,248
B,-2.2569179818703633,0.7250963411148029,-0.4912575072767213,0.9582292930013557,-2.5190126275237237,0.052329314403937954,-0.560302734375,-0.467529296875,0.484375,838,388,545,448,249
B,-2.307556166882481,0.7286255715842894,-0.4899710630512773,-2.6219233787543694,-2.5342798030962426,0.05996290219019751,-0.550048828125,-0.48046875,0.490478515625,832,381,545,449,249
B,-2.3197336722035464,0.7406258064475445,-0.4963735460068745,1.1414353998715847,-1.7327530855389908,-0.6804951130769782,-0.567626953125,-0.46630859375,0.500732421875,834,379,545,449,249
B,-2.346730352039415,0.7647938081223195,-0.4879908978474972,0.49433694301437936,0.38011716669625306,0.8963252263447539,-0.407958984375,-0.662353515625,0.44384765625,829,292,390,471,148
B,-2.3905691557274538,0.8012065638857548,-0.47280406113180257,-1.1926859577489795,1.5862240369252607,1.62914965382567,-0.396240234375,-0.6484375,0.444580078125,827,287,386,468,146
B,-2.4390709533886286,0.8389495106302571,-0.4749574306300266,-1.6583348127108115,1.7541629682229707,-0.09604118586898647,-0.4208984375,-0.67138671875,0.450439453125,832,291,387,472,147
B,-2.472567445382611,0.8696410777168501,-0.4666478248717031,-0.11635007988638398,1.09767441860465,0.9268595774897921,-0.392578125,-0.6669921875,0.43603515625,830,288,385,472,148
B,-2.5245421490768756,0.886935955942066,-0.45639689013598506,-1.9789454997337124,-0.26873779513580787,1.0642641576424638,-0.39306640625,-0.6591796875,0.437255859375,827,288,384,468,147
B,-2.5504965580016137,0.9176287661119584,-0.44183294965952385,0.5935735842357535,1.013704952955795,1.5528137759630745,-0.39794921875,-0.651611328125,0.456298828125,830,289,385,470,147
B,-2.6008014286908994,0.9460350935573744,-0.44055657542680765,-1.833907331794781,0.8228652582993066,0.21693591336765472,-0.40576171875,-0.654541015625,0.44970703125,826,289,384,470,145
B,-2.6241935142135704,0.9794219263247186,-0.43450407589241696,0.8760163323273565,1.3419492277649554,0.7207527072607844,-0.397705078125,-0.66064453125,0.44140625,824,287,382,467,145
B,-2.6572806260220077,1.0033532754934387,-0.44230598995921877,-0.1010829043138649,0.4106515178412913,-0.70672820876975,-0.4130859375,-0.662841796875,0.4443359375,831,289,383,469,145
B,-2.6780364205710367,1.0437342445649425,-0.4284562327722244,1.1355583170601808,2.0213385407420548,1.5375466003905554,-0.3994140625,-0.671142578125,0.44287109375,828,290,384,469,146
B,-2.7200895463363346,1.0715132098165145,-0.4186699851344303,-1.0323806142375291,0.7083614415054135,1.0718977454287235,-0.412353515625,-0.659423828125,0.45361328125,824,289,384,469,148
B,-2.751724093698889,1.1241377094585903,-0.40946699780324247,-0.001846263092490849,3.1740102964672454,1.1329664477187997,-0.420166015625,-0.663330078125,0.4404296875,829,288,381,468,145
B,-2.7936969363838418,1.1659872099299395,-0.406090993239964,-0.9942126753062313,2.1740102964672454,0.5070122492455174,-0.401123046875,-0.654296875,0.4404296875,828,288,380,470,144
B,-2.8321888585051793,1.2028880138377664,-0.39987469454142666,-0.6125332859932542,1.7312622048641921,0.7741878217646012,-0.388671875,-0.662841796875,0.442626953125,826,288,381,467,146
B,-2.8738528835326598,1.233134833890743,-0.39362396573020025,-0.9713119119474527,0.998437777383276,0.743653470619563,-0.402099609375,-0.65478515625,0.44580078125,825,290,381,468,148
B,-2.9114509068357237,1.264654984762313,-0.3879244488347404,-0.5590981714894374,1.1358423575359478,0.6978519439020059,-0.402099609375,-0.658203125,0.445068359375,824,289,382,470,145
B,-2.958061758545695,1.2978076771846871,-0.38766848440964263,-1.467495118054323,1.2961477010473983,0.16350079886383795,-0.413330078125,-0.662841796875,0.451904296875,825,287,380,467,147
B,-2.993381700733423,1.3272838293348685,-0.37712896076774427,-0.31482336232913205,0.9526362506657189,1.178767974436357,-0.395263671875,-0.667724609375,0.443115234375,822,290,380,467,146
B,-3.0226208545235074,1.3637473677301868,-0.35608409005327074,0.23479495828155494,1.5404225102077036,2.262737440085212,-0.403564453125,-0.6572265625,0.456787109375,826,287,379,469,148
B,-3.0721990268569632,1.4013384796056105,-0.34753505670553564,-1.7575714539321856,1.7388957926504516,1.026096218711166,-0.396484375,-0.654541015625,0.44384765625,831,291,381,467,149
B,-3.1040616402324037,1.4231688118019628,-0.3424051089329149,-0.01711343866500993,0.12057518196342865,0.5986153026806318,-0.40869140625,-0.64697265625,0.4521484375,825,291,380,466,147
B,-3.143451828557301,1.4581303161285482,-0.3444339931007745,-0.6812355760695901,1.5862240369252607,-0.03497248357891025,-0.387451171875,-0.663330078125,0.459716796875,824,290,377,465,145
B,-3.1970951841154176,1.5005724245840923,-0.34206946858805387,-2.1392508432451627,2.2732469376886195,0.4459435469554409,-0.3935546875,-0.6572265625,0.4384765625,827,290,381,468,146
B,-3.222864329946005,1.5334215705617433,-0.3355337367107588,0.6393751109533107,1.2961477010473983,0.8123557606958989,-0.398193359375,-0.666748046875,0.443359375,825,291,378,468,150
B,-3.25858771588509,1.5625319134839684,-0.3251133993869591,-0.3911592401917275,0.8610331972306043,1.178767974436357,-0.3994140625,-0.651123046875,0.448974609375,824,291,379,467,147
B,-3.298417735569465,1.5852591034933976,-0.3261179333920729,-0.7804722172909642,0.2732469376886195,0.0031954553523874107,-0.409423828125,-0.660400390625,0.44189453125,824,286,376,466,147
B,-3.3192789727104497,1.6204924848028543,-0.3206261807962733,1.1279247292739212,1.532788922421444,0.7283862950470439,-0.392333984375,-0.654052734375,0.45068359375,826,287,378,466,148
B,-3.3912879388318755,1.64647116497705,-0.3188185448956034,-3.994212675306231,0.6014912124977799,0.30853896680276915,-0.4033203125,-0.6591796875,0.4453125,827,288,379,465,147
B,-3.410482908583757,1.6830781289014853,-0.3110307197822929,1.2958636605716312,1.6701935025741157,0.9726611042073493,-0.39892578125,-0.671630859375,0.456298828125,826,288,379,466,145
B,-3.4691407457239833,1.7206367838061696,-0.3149051056889832,-2.665968400497071,1.7541629682229707,-0.18764423930410112,-0.40771484375,-0.64990234375,0.442626953125,827,290,378,466,148
B,-3.5056706470878454,1.7601013831235879,-0.30720090949208523,-0.44459435469554426,1.9450026628794592,0.9879282797798684,-0.40380859375,-0.6748046875,0.435302734375,823,287,376,464,145
B,-3.5353938874873907,1.7906064786259492,-0.298634164569987,0.20426060713651678,0.998437777383276,1.0184626309249065,-0.40380859375,-0.654052734375,0.449462890625,822,291,377,465,147
B,-3.569906939995909,1.830175459117806,-0.28961310642803834,-0.2537546600390557,1.9373690750931998,1.12533285993254,-0.39794921875,-0.660888671875,0.4521484375,825,291,379,464,145
B,-3.6010776320137974,1.8672268435817874,-0.28035391328156006,0.05158885141132595,1.6396591514290777,1.1329664477187997,-0.399169921875,-0.643310546875,0.45166015625,824,291,378,464,145
B,-3.6376222166064385,1.9133306221107824,-0.26802032479906207,-0.44459435469554426,2.6091248002840395,1.5070122492455171,-0.38720703125,-0.660888671875,0.454833984375,827,288,377,466,148
B,-3.6945946814759503,1.9530792272420525,-0.26580021596533726,-2.5209302325581397,1.9297354873069401,0.45357713474170036,-0.41259765625,-0.654296875,0.448974609375,826,289,376,465,148
B,-3.728943910172717,1.9707525706079114,-0.26131182468985653,-0.23085389668027712,-0.2305698562045102,0.545180188176815,-0.406005859375,-0.6689453125,0.4423828125,824,287,379,464,147
B,-3.772273407273773,1.9820554738924925,-0.25229004816377704,-1.1392508432451627,-0.887058405822831,0.9573939286348302,-0.3935546875,-0.652587890625,0.4462890625,822,292,378,465,147
B,-3.7988291409540107,2.018311251621888,-0.240017239240315,0.5248712941594176,1.5785904491390013,1.445943546955441,-0.398193359375,-0.659423828125,0.447998046875,821,289,378,464,147
B,-3.83576165960523,2.0438409325704057,-0.23466880955834898,-0.5209302325581397,0.5022545712764058,0.6825847683294868,-0.40478515625,-0.6474609375,0.447509765625,819,290,377,462,145
B,-3.870302012481883,2.0846144634448356,-0.23407768120143135,-0.23848748446653667,2.09767441860465,0.3161725545890286,-0.392822265625,-0.646484375,0.439208984375,820,289,379,466,148
B,-3.91063759250759,2.1190102751457762,-0.2342229971346987,-0.8262737440085214,1.448819456772589,0.2016687377951356,-0.40966796875,-0.666015625,0.439453125,817,287,375,464,145
B,-3.9386686172066403,2.154874108118267,-0.22784529336966955,0.3874667140067458,1.5633232735664822,0.8657908751997158,-0.404052734375,-0.66259765625,0.467529296875,816,287,379,461,145
B,-3.9743496787712185,2.1825628380958575,-0.22706351357134666,-0.35299130126042977,0.7923309071542685,0.2551038522989524,-0.38916015625,-0.640625,0.44677734375,822,288,377,467,149
B,-4.00563502776878,2.2074729683945478,-0.23825864801409657,0.16609266820521906,0.6549263270015967,-0.9510030179300553,-0.38330078125,-0.6552734375,0.456787109375,818,291,378,463,145
B,-4.045204853620598,2.2549378958562616,-0.2559292725656304,-0.6583348127108114,2.914468311734421,-1.4395526362506659,-0.392578125,-0.65478515625,0.453857421875,819,289,377,464,146
B,-4.104764359725582,2.2894503805964774,-0.26028098282885415,-2.6888691638558493,1.5633232735664822,-0.19527782709036057,-0.395263671875,-0.674072265625,0.4423828125,821,289,378,466,147
B,-4.1381811523652665,2.3279011418195834,-0.2482249838527509,-0.15451801881768168,1.8152316705130471,1.4688443103142195,-0.4013671875,-0.673828125,0.44677734375,823,289,381,465,146
B,-4.181485317794678,2.362758041473323,-0.24079576932286556,-1.1087164921001245,1.5175217468489248,0.9879282797798684,-0.3916015625,-0.669677734375,0.43798828125,819,288,378,464,145
B,-4.219403582241831,2.391764168378659,-0.22734619389627211,-0.6125332859932542,0.8610331972306043,1.545180188176815,-0.393310546875,-0.659912109375,0.46142578125,820,287,379,465,148
B,-4.2586685131229425,2.4357250833686965,-0.22172573023123326,-0.7423042783596664,2.364849991123734,0.8734244629859753,-0.400146484375,-0.651611328125,0.442626953125,822,289,378,465,148
B,-4.29877680256609,2.4610855114721786,-0.22430018927381248,-0.8110065684360023,0.5404225102077036,-0.08077401029646758,-0.401611328125,-0.640869140625,0.447265625,817,288,377,464,145
B,-4.33066326590165,2.4854819447002083,-0.22494525749420677,0.028688088052547314,0.4717202201313677,0.11006568436002095,-0.400634765625,-0.6572265625,0.451416015625,817,289,378,463,146
B,-4.370439482072888,2.5126335175459733,-0.2211714621940052,-0.7194035150008877,0.815231670513047,0.5833481271081127,-0.3857421875,-0.677490234375,0.466796875,817,288,379,464,147
B,-4.39761210884792,2.5540031971120243,-0.2164149408563617,0.47906976744186036,2.1282087697496883,0.7818214095508607,-0.397216796875,-0.65380859375,0.4541015625,821,286,377,459,145
B,-4.437806151484814,2.5782597465311152,-0.21433324831173095,-0.8262737440085214,0.41828510562755095,0.3848748446653645,-0.3974609375,-0.6435546875,0.43505859375,817,288,377,464,146
B,-4.462231360657072,2.60641732809118,-0.21328284921860055,0.7691461033197229,0.8381324338718257,0.3161725545890286,-0.39990234375,-0.657470703125,0.443115234375,818,288,377,464,145
B,-4.503166009771036,2.6246504902319243,-0.2136208838851979,-0.8339073317947809,-0.07026451269305989,0.11006568436002095,-0.38623046875,-0.665283203125,0.444580078125,817,287,378,462,145
B,-4.528550020017357,2.657010967327157,-0.2035386263604299,0.6470086987395702,1.2121782353985433,1.2551038522989524,-0.392578125,-0.65673828125,0.466064453125,816,286,380,465,148
B,-4.577429463654583,2.690266450183324,-0.20529561822051393,-1.6430676371382924,1.4030179300550318,0.0871649210012424,-0.397216796875,-0.66796875,0.444580078125,820,289,379,463,145
B,-4.597907132535377,2.7220607253252025,-0.19447188967501056,1.1431919048464403,1.166376708680986,1.3314397301615477,-0.390869140625,-0.661376953125,0.44384765625,821,286,380,461,145
B,-4.652401374601774,2.7444228566069673,-0.18916442120533872,-2.2537546600390557,0.23507899875732186,0.7054855316882653,-0.39794921875,-0.65771484375,0.446533203125,817,288,380,465,148
B,-4.675315518239405,2.7808290999287397,-0.17591488528566002,0.8378483933960588,1.5251553346351845,1.6062488904668912,-0.39990234375,-0.641845703125,0.463623046875,820,288,378,463,147
B,-4.720277281084385,2.811027462287222,-0.1716161991812372,-1.284289011184094,1.0442393041008333,0.6749511805432271,-0.391357421875,-0.655517578125,0.4560546875,816,286,379,459,144
B,-4.750026927275681,2.8637214849239716,-0.15782520640156394,0.17372625599147862,3.1816438842535053,1.8047221729096394,-0.40380859375,-0.664794921875,0.467529296875,817,290,379,464,146
B,-4.793289866849077,2.9187798974798422,-0.15272738558438675,-1.1316172554589032,3.4946209834901465,0.9650275164210897,-0.399658203125,-0.66015625,0.442626953125,816,289,378,462,144
B,-4.819453909514634,2.9534755088222955,-0.14580125685273576,0.5630392330907152,1.4411858689863295,0.9802946919936089,-0.40185546875,-0.65966796875,0.435302734375,817,289,377,463,148
B,-4.845115492404184,2.99241336506165,-0.14443978756430004,0.6622758743120893,1.9450026628794592,0.46884431031421947,-0.390625,-0.65576171875,0.4619140625,819,288,380,466,148
B,-4.887807569791641,3.0284734304463936,-0.14613771442501836,-1.001846263092491,1.7236286170779325,0.14823362329131884,-0.38623046875,-0.665283203125,0.466064453125,817,288,380,463,146
B,-4.924049392673058,3.0865210143544317,-0.1395730863555251,-0.3911592401917275,3.8610331972306042,1.1635007988638377,-0.393798828125,-0.68603515625,0.4638671875,816,288,377,462,147
B,-4.96586819097817,3.12474971202343,-0.1267415391408358,-1.0247470264512695,1.7617965560092301,1.613882478253151,-0.402099609375,-0.668212890625,0.4462890625,817,289,378,462,146
B,-5.007108381126318,3.164664172259125,-0.11315760337835387,-0.9407775608024145,1.9755370140244974,1.7131191194745248,-0.388671875,-0.6689453125,0.443115234375,813,288,379,464,147
B,-5.033747518477318,3.202560835263983,-0.10322158489187751,0.517237706373158,1.7694301437954898,1.3314397301615477,-0.39013671875,-0.6552734375,0.4501953125,815,286,376,463,148
B,-5.061490982715164,3.223268013533788,-0.09702589774656886,0.39510030179300537,0.03660571631457388,0.8047221729096394,-0.40185546875,-0.651611328125,0.452392578125,818,285,379,465,149
B,-5.098785967408416,3.2453520195676937,-0.10235206114995915,-0.482762293626842,0.2961477010473983,-0.3250488194567729,-0.39453125,-0.6484375,0.4619140625,818,287,378,462,146
B,-5.13676948921325,3.2996552521633054,-0.09807664024766143,-0.566731759275697,3.4869873957038866,0.9268595774897921,-0.384521484375,-0.660400390625,0.463134765625,817,288,376,461,148
B,-5.189529476592917,3.340701985906024,-0.09002836046038926,-2.0781821409550862,2.112941594177169,1.1864015622226165,-0.394775390625,-0.669189453125,0.44677734375,817,288,379,464,145
B,-5.207825723171323,3.3696930120772435,-0.07531902018589294,1.3340315995029288,0.8610331972306043,1.743653470619563,-0.388916015625,-0.663330078125,0.436767578125,817,285,376,461,144
B,-5.24749616095228,3.40711912233929,-0.07575634458440382,-0.7194035150008877,1.830498846085566,0.3161725545890286,-0.38232421875,-0.6484375,0.443359375,814,289,378,462,148
B,-5.3017752898816175,3.42850540081823,-0.07123817759244218,-2.2003195455352387,0.20454464761228364,0.6673175927569677,-0.39990234375,-0.685791015625,0.453369140625,817,287,376,462,147
B,-5.313415658062126,3.46317512818694,-0.050055120233269544,1.9218178590449135,1.3037812888336577,2.4383099591691813,-0.40380859375,-0.66162109375,0.45263671875,813,286,375,463,148
B,-5.359363212341703,3.4966975016144253,-0.040688631297889286,-1.4445943546955444,1.2885141132611386,1.2551038522989524,-0.394775390625,-0.642333984375,0.452880859375,812,287,374,464,148
B,-5.396385791340855,3.525591884368069,-0.038800475196985484,-0.482762293626842,0.9373690750931998,0.47647789810047914,-0.385498046875,-0.643798828125,0.464599609375,813,286,376,462,148
B,-5.4288021211615405,3.5641670612805694,-0.035841634859155126,-0.07054855316882673,1.8228652582993066,0.6673175927569677,-0.405517578125,-0.64794921875,0.4404296875,815,287,376,461,147
B,-5.463396861905083,3.6066045710682233,-0.03518219186728569,-0.215586721107758,2.3266820521924365,0.49174507367299825,-0.38818359375,-0.660888671875,0.451904296875,818,291,377,463,148
B,-5.506137089795167,3.6447743561336288,-0.03587985308096169,-1.0400142020237886,1.883933960589383,0.3161725545890286,-0.4013671875,-0.66943359375,0.45654296875,816,289,376,462,145
B,-5.521058670364623,3.6833776933866713,-0.023660275497210444,1.6928102254571273,1.8610331972306042,1.613882478253151,-0.387451171875,-0.671142578125,0.447265625,813,287,376,463,147
B,-5.557085564040888,3.7211644838491114,-0.01695113785162314,-0.40642641576424654,1.7923309071542683,1.0566305698562042,-0.397705078125,-0.670166015625,0.4833984375,811,286,375,462,146
B,-5.609474611331816,3.7579052570007794,-0.014874740599637577,-2.0094798508787504,1.7388957926504516,0.5909817148943721,-0.39111328125,-0.661865234375,0.45458984375,816,289,374,461,147
B,-5.633020989455196,3.790572845859149,-0.003907834987518504,0.8225812178235397,1.2579797621161004,1.4383099591691813,-0.387451171875,-0.66064453125,0.446533203125,812,286,377,463,145
A,-0.008309658453344668,0.03730211157576218,-0.0004181550797570477,0.2400534702923281,0.1035283357371513,-0.04154501002568067,-0.9375,-0.27685546875,-0.09814453125,613,1021,1022,1022,1023
A,-0.016469272650540896,0.06861060496800506,-0.0001553324443123536,0.29348858479614487,-0.48425792380483346,0.027157280050655208,-0.908447265625,-0.27880859375,-0.11376953125,613,1023,1023,1023,1023
A,-0.03622875076326794,0.10301996470459841,-0.00341372412958749,-0.8820839342878246,-0.17891441235445177,-0.32398775811728364,-0.918212890625,-0.27734375,-0.119873046875,613,1022,1023,1023,1022
A,-0.04790873458699538,0.1401661336545503,-0.0011810463796321923,-0.09582439230309181,0.08826116016463222,0.2256305624934033,-0.934326171875,-0.2763671875,-0.117431640625,614,1023,1021,1023,1021
A,-0.06588833180177517,0.17096303998316426,-0.007653603311069454,-0.7217785907763743,-0.5453266260949098,-0.6445984451401845,-0.923583984375,-0.273681640625,-0.11181640625,613,1023,1023,1021,1023
A,-0.06857480037025648,0.21266368509972744,0.001357017971076165,0.8125725542617938,0.5462764273402048,0.9050198754705026,-0.91943359375,-0.275146484375,-0.108642578125,617,1023,1023,1021,1023
A,-0.08603696867662367,0.23786001369634305,-0.006112200646831286,-0.6607098884862979,-1.1025785344918562,-0.7438350863615586,-0.916015625,-0.273681640625,-0.14013671875,615,1023,1022,1023,1021
A,-0.09729284891841536,0.26556335327136626,0.003818684514465865,-0.03475569001301537,-0.8506701375452914,0.996622928905617,-0.925537109375,-0.280029296875,-0.11572265625,615,1022,1021,1022,1022
A,-0.09759268551545892,0.310412684706199,0.009981186676613405,1.0186794244908013,0.8516199387905864,0.6225771273788995,-0.925048828125,-0.267822265625,-0.09912109375,615,1021,1022,1023,1023
A,-0.11660966663596177,0.3505618795603405,-0.0005827393005080114,-0.8133816442114887,0.3936046716150139,-1.0491785978119403,-0.92041015625,-0.27490234375,-0.134521484375,616,1019,1023,1022,1023
A,-0.11843734903821083,0.383740102729164,0.006041077681485825,0.8889084321243892,-0.308685404720864,0.6683786540964567,-0.92138671875,-0.2734375,-0.11083984375,614,1022,1021,1023,1022
A,-0.128106422040558,0.4192514307094519,0.009442809433175593,0.14081682907095405,-0.06441059556055863,0.34776796707355595,-0.918212890625,-0.281982421875,-0.109130859375,614,1021,1022,1023,1023
A,-0.14335538650753565,0.4628142432717638,0.01121695322252213,-0.4546030182572902,0.7294825342104337,0.18746262356210552,-0.918701171875,-0.271484375,-0.12451171875,612,1023,1022,1023,1021
A,-0.16023043677147888,0.49965102469321543,0.003914379380595627,-0.6149083617687405,0.05772680901959405,-0.72093432300278,-0.923583984375,-0.271484375,-0.127685546875,613,1023,1022,1022,1023
A,-0.1673414607723448,0.5314387462626936,0.002723775439971426,0.4156259893762976,-0.43082280930101663,-0.11024730010201655,-0.911376953125,-0.2841796875,-0.109619140625,613,1022,1023,1022,1023
A,-0.18136241363368882,0.5657038835783698,-0.00016014947201622082,-0.28666408695958034,-0.1865480001407113,-0.27818623139972654,-0.91748046875,-0.282470703125,-0.11328125,615,1023,1023,1021,1023
A,-0.18561699445685662,0.6039238288296965,0.0059520182621224434,0.6446336229640838,0.1951313891722658,0.6225771273788995,-0.920166015625,-0.273193359375,-0.12451171875,612,1023,1023,1023,1023
A,-0.20824373762808718,0.6309917454051216,-0.0223420927085584,-1.141625919020649,-0.9041052520491083,-2.820170964224154,-0.914306640625,-0.275390625,-0.11865234375,613,1022,1021,1022,1022
A,-0.21643157057984483,0.6648471155617096,-0.022258854174562484,0.25532064586484715,-0.2399831146445281,0.019523692264395653,-0.923828125,-0.273681640625,-0.111572265625,614,1022,1023,1023,1023
A,-0.22425918134926856,0.7105973650853578,-0.015889229140958288,0.27058782143736626,0.9432229922257009,0.6531114785239376,-0.912109375,-0.2666015625,-0.113525390625,611,1021,1021,1021,1022
A,-0.23610367669534799,0.7521489636051955,-0.014100720094520184,-0.0805572167305727,0.5386428395539452,0.19509621134836508,-0.920166015625,-0.281494140625,-0.110595703125,610,1022,1023,1023,1023
A,-0.24676703456164678,0.782336762453117,-0.015020343187114525,0.03394660006332051,-0.5987617405987266,-0.07971294895697834,-0.908203125,-0.27587890625,-0.123291015625,612,1021,1023,1023,1023
A,-0.25754031254913884,0.8155965842656806,-0.019624710933451694,0.04158018784957995,-0.28578464136208537,-0.4461251626974365,-0.919189453125,-0.282958984375,-0.10986328125,613,1022,1022,1023,1023
A,-0.26881032678611216,0.847899015950333,-0.021175883239931463,-0.019488514440496374,-0.3850212825834594,-0.14078165124705477,-0.908203125,-0.277587890625,-0.1162109375,614,1023,1021,1023,1022
A,-0.2804788404254991,0.9030368736934469,-0.02054762062013599,-0.08819080451683226,1.8897878777218842,0.08822598234073153,-0.918701171875,-0.273681640625,-0.12158203125,611,1023,1023,1023,1023
A,-0.28714177960673665,0.9287735943788409,-0.026426425098454505,0.4156259893762976,-1.0491434199880394,-0.5758961550638486,-0.91455078125,-0.2705078125,-0.114990234375,612,1023,1021,1023,1023
A,-0.29503403871494316,0.9569879304493715,-0.03530524562867881,0.3316565237274426,-0.7896014352552151,-0.8736060787279707,-0.9072265625,-0.277587890625,-0.093017578125,611,1021,1022,1023,1021
A,-0.30384334733110063,1.0010269904062445,-0.036179637740826096,0.23241988250606854,0.7905512365005101,-0.06444577338445923,-0.926025390625,-0.284912109375,-0.09619140625,614,1023,1023,1021,1022
A,-0.31578252733557466,1.038605865174692,-0.03649873287437037,-0.06529004115805359,0.14932986245470853,-0.011010658880642454,-0.919189453125,-0.287353515625,-0.112548828125,611,1023,1023,1023,1023
A,-0.3357156252243988,1.06676455901064,-0.04264340749761718,-0.9049846976466032,-0.8048686108277342,-0.5987969184226272,-0.91357421875,-0.271484375,-0.10986328125,609,1023,1023,1023,1022
A,-0.3286790506561175,1.099024183531108,-0.029876540454340742,1.774404615330496,-0.40028845815597847,1.294332852569739,-0.919189453125,-0.278076171875,-0.106689453125,613,1021,1022,1022,1023
A,-0.3446121278248054,1.1369176008327235,-0.03731062582369564,-0.4927709571885879,0.17223062581348716,-0.72093432300278,-0.9248046875,-0.27734375,-0.099853515625,610,1022,1022,1021,1022
A,-0.35290400513302883,1.1862965716632783,-0.034143206071069195,0.308755760368664,1.3325359693249377,0.34776796707355595,-0.927001953125,-0.29443359375,-0.116943359375,610,1023,1023,1021,1022
A,-0.37290127561096864,1.219661123716699,-0.03447700018317214,-0.8668167587153055,-0.27051746578956626,-0.011010658880642454,-0.91845703125,-0.288330078125,-0.120849609375,607,1022,1023,1021,1023
A,-0.38460183151221583,1.2547012406383846,-0.027863103354990527,-0.11109156787561081,-0.12547929785063497,0.6836458296689758,-0.912109375,-0.27001953125,-0.11376953125,611,1023,1023,1021,1022
A,-0.4001526079263333,1.2931267751774524,-0.029226607169187298,-0.4546030182572902,0.22566574031730396,-0.11024730010201655,-0.919921875,-0.279052734375,-0.108642578125,612,1023,1022,1022,1023
A,-0.40235474511550207,1.3293877702508168,-0.025085984683203114,0.8889084321243892,0.011925282302036795,0.4393710205086705,-0.918212890625,-0.284423828125,-0.1064453125,613,1022,1021,1023,1022
A,-0.41712979856251103,1.3600362044628953,-0.03595323560859793,-0.3553663770359161,-0.5453266260949098,-1.0644457733844592,-0.90771484375,-0.275146484375,-0.11669921875,610,1022,1023,1023,1023
A,-0.4237802615118958,1.3975810454481539,-0.03557043290247995,0.42325957716255713,0.13406268688218945,0.06532521898195287,-0.925048828125,-0.2783203125,-0.109375,610,1022,1023,1022,1021
A,-0.4300217752706065,1.4361844277454112,-0.03086040250818342,0.491961867238893,0.24856650367608257,0.5004397227987468,-0.913818359375,-0.28564453125,-0.105224609375,610,1023,1023,1023,1021
A,-0.4443969526902107,1.4674330392958808,-0.03166407827078958,-0.3629999648221758,-0.4995250993773525,-0.05681218559819978,-0.925048828125,-0.273681640625,-0.09765625,612,1023,1023,1023,1023
A,-0.45830349723998115,1.5230582109170518,-0.033272223521054266,-0.324832025890878,1.9355894044394415,-0.11788088788827622,-0.9287109375,-0.271728515625,-0.111083984375,610,1023,1023,1021,1023
A,-0.4679403366854147,1.5578078869406535,-0.031156128157560015,0.16371759242973272,-0.1331128856368945,0.2408977380659224,-0.916748046875,-0.2880859375,-0.120849609375,610,1023,1023,1023,1016
A,-0.4859789320307869,1.5810552467151766,-0.021756141887775027,-0.759946529707672,-1.3086854047208638,0.9584549899743193,-0.921875,-0.27197265625,-0.113037109375,611,1023,1023,1022,1023
A,-0.47099583654864896,1.6158865611477848,-0.017041677907347348,2.5988320962465266,-0.1331128856368945,0.5004397227987468,-0.9169921875,-0.28271484375,-0.110107421875,612,1023,1023,1021,1021
A,-0.48322328796523445,1.6507829388883142,-0.014862192834965593,-0.11872515566187036,-0.12547929785063497,0.24853132585218185,-0.916748046875,-0.28173828125,-0.103271484375,612,1021,1021,1021,1022
A,-0.496002227170362,1.6905829228238063,-0.01402651700921623,-0.1797938579519467,0.3630703204699757,0.11876033348576964,-0.919189453125,-0.27978515625,-0.0986328125,611,1023,1023,1022,1023
A,-0.5099433676891179,1.7392544175691467,-0.010376296050907442,-0.30193126253209934,1.2485665036760827,0.4088366693636323,-0.916015625,-0.279541015625,-0.10498046875,610,1023,1023,1023,1021
A,-0.5197529372070053,1.781141280328224,-0.010269020524912686,0.1331832412846945,0.5768107784852429,0.05005804340943376,-0.912841796875,-0.28173828125,-0.1162109375,611,1023,1023,1021,1022
A,-0.5305466034982516,1.816235785466279,-0.01026133873158086,0.03394660006332051,-0.10257853449185633,0.03479086783691476,-0.920166015625,-0.28369140625,-0.109130859375,603,1015,1016,1020,1022
A,-0.5432762508104164,1.8533139894022406,-0.009193886713820622,-0.2103282090969849,0.08062757237837267,0.1416610968445483,-0.9208984375,-0.270751953125,-0.110595703125,610,1017,1017,1018,1023
A,-0.5485837644718343,1.8968774662532912,-0.009202859170682478,0.5835649206740074,0.7447497097829529,0.04242445562317432,-0.908203125,-0.2802734375,-0.10546875,608,1023,1021,1023,1023
A,-0.5666266258637691,1.9228980960792512,-0.021727052996582473,-0.6683434762725573,-1.0033418932704823,-1.2247511168959098,-0.9248046875,-0.27978515625,-0.111572265625,610,1022,1023,1021,1023
A,-0.5767409381871549,1.948071629922505,-0.022045504784119478,0.1484504168572136,-1.0796777711330776,-0.0033770710943830107,-0.91748046875,-0.295654296875,-0.105224609375,610,1023,1023,1022,1022
A,-0.5821357154653047,1.9899144976872036,-0.010764257394982045,0.5606641573152289,0.5691771906989833,1.1721954479895864,-0.91748046875,-0.2900390625,-0.09765625,611,1021,1023,1023,1023
A,-0.5964922050448354,2.029790975025946,-0.008703648881776863,-0.340099201463397,0.3707039082562353,0.24853132585218185,-0.912109375,-0.2783203125,-0.10400390625,611,1023,1021,1021,1021
A,-0.604557057180858,2.0648909283513377,-0.010027986224406565,0.2782214092236258,-0.11021212227811587,-0.09498012452949744,-0.916015625,-0.273193359375,-0.1240234375,611,1021,1021,1021,1022
A,-0.6114632701470575,2.1045425627572305,-0.006518212029173177,0.37745805044499986,0.34016955711119706,0.39356949379111317,-0.9208984375,-0.27490234375,-0.117919921875,610,1023,1023,1022,1022
A,-0.6258582626635207,2.140136247815726,-0.006353095436262826,-0.31719843810461845,-0.04914341998803954,0.057691631195693316,-0.916015625,-0.28515625,-0.09814453125,610,1022,1022,1022,1022
A,-0.6380001897037473,2.174513329581896,-0.005178220595608342,-0.11872515566187036,-0.17891441235445177,0.15692827241706742,-0.91943359375,-0.27978515625,-0.110595703125,612,1021,1023,1021,1023
A,-0.6470683003562129,2.1997139404246173,-0.010772892731990391,0.19425194357477082,-1.0949449467055967,-0.5300946283462913,-0.91943359375,-0.274169921875,-0.11279296875,608,1021,1021,1021,1022
A,-0.6569307054058662,2.236194227123744,-0.012905881066474957,0.09501530235339684,0.027192457874555882,-0.171316002392093,-0.9306640625,-0.275634765625,-0.098876953125,612,1023,1021,1022,1023
A,-0.6742918877400856,2.274743904480096,-0.016541544403147788,-0.6072747739824811,0.24856650367608257,-0.3163541703310242,-0.91796875,-0.283447265625,-0.109130859375,611,1023,1023,1023,1021
A,-0.6828001324770965,2.317116761514481,-0.014255698604635736,0.224786294719809,0.6149787174165406,0.27906567699722007,-0.91552734375,-0.2744140625,-0.11767578125,610,1023,1022,1021,1021
A,-0.6855130006070499,2.346519003944964,-0.010012006518769653,0.8507404931930914,-0.6674640306750624,0.46227178386744905,-0.916015625,-0.289794921875,-0.11328125,609,1023,1021,1023,1021
A,-0.7076251654662252,2.3794636757762726,-0.013455604490502733,-1.0729236289443131,-0.308685404720864,-0.3010869947585051,-0.926513671875,-0.288818359375,-0.099853515625,610,1021,1022,1022,1023
A,-0.7263318814474923,2.4130861702927113,-0.01459089249127432,-0.8057480564252291,-0.2628838780033067,-0.07207936117071889,-0.93701171875,-0.27392578125,-0.103271484375,607,1023,1022,1022,1023
A,-0.7406045229228173,2.4481458268514307,-0.01522851071891001,-0.33246561367713756,-0.11021212227811587,-0.01864424666690212,-0.91845703125,-0.27734375,-0.138671875,607,1022,1023,1023,1022
A,-0.7490478399280598,2.4773406584153843,-0.014202567671314722,0.27058782143736626,-0.6903647940338411,0.1416610968445483,-0.916748046875,-0.284423828125,-0.1123046875,608,1023,1021,1023,1023
A,-0.7644632683178171,2.5099406695019715,-0.011413554631404855,-0.393534315967214,-0.33921975586590214,0.3248672037147773,-0.9189453125,-0.296630859375,-0.109375,609,1023,1022,1023,1023
A,-0.7697244892050484,2.5490141755808216,-0.0032668476679446026,0.5530305695289693,0.2867344426073803,0.8668519365392048,-0.911865234375,-0.28173828125,-0.109375,609,1021,1022,1021,1023
A,-0.7852997534235389,2.580884105925196,-0.0076959395348953465,-0.4698701938298093,-0.43082280930101663,-0.4003236359798792,-0.923828125,-0.272216796875,-0.10498046875,609,1022,1022,1022,1022
A,-0.8029765462272465,2.6034333678072796,-0.016360868237228834,-0.6530763007000384,-1.3544869314384211,-0.835438139796673,-0.934814453125,-0.277587890625,-0.111328125,609,1023,1022,1022,1021
A,-0.8160087789871792,2.637454426414794,-0.015500032139772626,-0.1950610335244658,-0.20944876349948993,0.13402750905828875,-0.917724609375,-0.28271484375,-0.109130859375,609,1023,1021,1023,1023
A,-0.8168247371763588,2.674320198769036,-0.003775082681303835,1.0186794244908013,0.07299398459211313,1.2256305624934032,-0.917724609375,-0.294677734375,-0.111572265625,611,1023,1023,1023,1022
A,-0.8349812066400074,2.707572247382822,-0.0077981082193570046,-0.7065114152038552,-0.28578464136208537,-0.35452210926232186,-0.924072265625,-0.278564453125,-0.109130859375,608,1022,1022,1023,1022
A,-0.8480598557749016,2.741163769222936,-0.010223006992234943,-0.2103282090969849,-0.25525029021704715,-0.19421676575087155,-0.92724609375,-0.2783203125,-0.1123046875,611,1023,1021,1023,1022
A,-0.8505324759638169,2.7806727752840303,-0.0034172902708219134,0.8125725542617938,0.324902381538678,0.7370809441727926,-0.937255859375,-0.283203125,-0.1083984375,610,1022,1023,1023,1022
A,-0.8630981133863223,2.8154948761304066,0.0023749842424595435,-0.18742744573820624,-0.14074647342315405,0.630210715165159,-0.915771484375,-0.278076171875,-0.111083984375,610,1016,1022,1021,1020
A,-0.8769440202129667,2.8554660334458823,0.006169272784470856,-0.30193126253209934,0.3783374960424948,0.4393710205086705,-0.915283203125,-0.279052734375,-0.10693359375,608,1023,1023,1023,1022
A,-0.8939093571770664,2.893025487572337,0.005943049762669932,-0.5996411861962214,0.141696274668449,0.03479086783691476,-0.917236328125,-0.278076171875,-0.104248046875,611,1022,1021,1022,1023
A,-0.907590939554818,2.930058159580249,0.009178355032202384,-0.324832025890878,0.07299398459211313,0.37830231821859417,-0.919677734375,-0.268798828125,-0.10595703125,608,1022,1022,1023,1023
A,-0.9208014954632645,2.9599031570022563,0.012504951403118737,-0.24849614802828257,-0.6369296795300243,0.37830231821859417,-0.914794921875,-0.275634765625,-0.125,607,1023,1022,1023,1022
A,-0.9305035407642808,2.9898632882323066,0.010989595269239613,0.16371759242973272,-0.6063953283849861,-0.10261371231575711,-0.914306640625,-0.28564453125,-0.108642578125,609,1022,1023,1023,1021
A,-0.9477745877641812,3.0206863393636443,0.0020504304096735765,-0.5767404228374429,-0.5147922749498716,-0.8430717275829327,-0.92529296875,-0.28271484375,-0.09765625,609,1023,1021,1022,1022
A,-0.9591379568326558,3.059714976477876,0.0023209799482348963,-0.07292362894431315,0.27910085482112074,0.08822598234073153,-0.9306640625,-0.2734375,-0.11083984375,609,1023,1023,1023,1023
A,-0.9685137060047432,3.0976081535940683,0.013031731700480493,0.1484504168572136,0.17223062581348716,1.1340275090582888,-0.911865234375,-0.289794921875,-0.095458984375,609,1023,1022,1021,1023
A,-0.9881552716952406,3.1323564757533484,0.01273181733130373,-0.874450346501565,-0.14074647342315405,0.027157280050655208,-0.917724609375,-0.276123046875,-0.100341796875,610,1023,1023,1023,1023
A,-1.0027744183688747,3.171654836224304,0.010208965426730636,-0.3629999648221758,0.31726879375241845,-0.1865831779646121,-0.91650390625,-0.27490234375,-0.102783203125,608,1023,1023,1023,1022
A,-1.0117657559625672,3.209878056360106,0.009526328310947501,0.20188553136103038,0.21039856474478488,-0.0033770710943830107,-0.904541015625,-0.274658203125,-0.109130859375,610,1022,1023,1021,1014
A,-1.0277022728335339,3.24305820485902,0.005067427028762888,-0.3037956871987897,-0.23178668167587166,-0.3779505399795966,-0.9111328125,-0.32421875,-0.11572265625,533,1023,1023,1022,1023
A,-1.046399305047314,3.2747143711024713,0.008099847139923512,-0.5862384352903927,-0.38445843740106245,0.3701410630738384,-0.908447265625,-0.333740234375,-0.115234375,532,1023,1022,1022,1023
A,-1.0679632900497535,3.3058644050817962,0.007965943386841645,-0.9221162978858126,-0.45316072747739833,0.049530376050937686,-0.911865234375,-0.3154296875,-0.1103515625,531,1021,1022,1021,1022
A,-1.083812055190028,3.3332149961661797,0.008194099567415661,-0.3343300383438279,-0.827206529004116,0.0800647271959758,-0.92041015625,-0.32373046875,-0.114013671875,532,1023,1022,1023,1022
A,-1.084575211885262,3.368297822051023,0.012901899095770742,1.2076546944805995,-0.04094698701938311,0.5457135821578079,-0.898681640625,-0.333251953125,-0.10888671875,534,1021,1022,1023,1023
A,-1.102100068458299,3.4004924592594623,0.010614489393917967,-0.42593309177894234,-0.3157561473247266,-0.15657649417807007,-0.900634765625,-0.33447265625,-0.107666015625,534,1021,1022,1023,1021
A,-1.1300864179015695,3.4341256602190424,0.006029305806407474,-1.5099025574277973,-0.1859851549583144,-0.38558412776585627,-0.9013671875,-0.31982421875,-0.12060546875,532,1023,1023,1022,1023
A,-1.1390359305497313,3.463802261308069,0.004768775707113088,0.32215851127449274,-0.6058324832025892,-0.06497344074295541,-0.90771484375,-0.30712890625,-0.099853515625,535,1023,1023,1022,1023
A,-1.1467449733877153,3.4950531541632994,0.0017458588221048313,0.5206317937172409,-0.4226263763323602,-0.2329123720406654,-0.896728515625,-0.321533203125,-0.11572265625,536,1023,1022,1023,1022
A,-1.1601955846668353,3.527500687547407,0.0030160611720014938,-0.028986526893446163,-0.292855383965948,0.20220213177612845,-0.9091796875,-0.3408203125,-0.095947265625,533,1023,1021,1023,1021
A,-1.1771583179528393,3.569188405497364,0.003100098136342783,-0.380131565061385,0.6308087381714567,0.10296549055475446,-0.90625,-0.337646484375,-0.10498046875,535,1023,1023,1022,1023
A,-1.2095194980579684,3.6038971134972684,-0.009128275059957645,-1.883948358954515,-0.05621416259190219,-1.141309318605551,-0.89111328125,-0.3203125,-0.130859375,536,1023,1023,1022,1021
A,-1.215884588865582,3.633759979885739,-0.0031901547272077694,0.5893340837935768,-0.5829317198438105,0.6602173989517011,-0.909423828125,-0.3232421875,-0.124755859375,536,1023,1023,1023,1022
A,-1.240378734701953,3.669352573919144,-0.002838748596688759,-1.1587575192598585,0.012488127484433675,0.11823266612727357,-0.90380859375,-0.329833984375,-0.11279296875,533,1022,1022,1023,1022
A,-1.2579727226917552,3.7147361656402373,-5.759600792001462e-06,-0.5175361452140568,0.974320188553136,0.38540823864635754,-0.9072265625,-0.321533203125,-0.111083984375,531,1021,1023,1022,1021
A,-1.2751119897453147,3.75721385497272,0.0043251190444954166,-0.47173461849649967,0.6842438526752734,0.5304464065852887,-0.910400390625,-0.32568359375,-0.12158203125,533,1023,1023,1023,1021
A,-1.2819772201398991,3.7862400006113686,0.0001545730662273877,0.6046012593660958,-0.6440004221338869,-0.3474161888345586,-0.90625,-0.322265625,-0.129150390625,536,1023,1022,1023,1022
A,-1.3041930911527082,3.819973639538949,0.0009980161520181474,-0.96791782460337,-0.1859851549583144,0.16403419284483078,-0.904296875,-0.3203125,-0.119873046875,532,1023,1022,1021,1021
A,-1.3123812546281417,3.857984747684147,0.008733707511048938,0.451929503640905,0.2491293488584795,0.8663242691807086,-0.890380859375,-0.33349609375,-0.10302734375,533,1022,1023,1021,1022
A,-1.3363475102705797,3.889594306066457,0.009810693247196838,-1.1053224047560415,-0.38445843740106245,0.18693495620360945,-0.900390625,-0.330322265625,-0.120361328125,533,1022,1023,1022,1023
A,-1.358723646391377,3.913075190690939,0.01862649064386569,-1.0671544658247438,-1.2394202694621312,0.9350265592570445,-0.916259765625,-0.316162109375,-0.1123046875,539,1021,1023,1022,1023
A,-1.3779433642112469,3.9387603426894584,0.010537455728367793,-0.6167727864354309,-0.9722446969430472,-0.7443627537200548,-0.916259765625,-0.32177734375,-0.114501953125,533,1023,1022,1023,1023
A,-1.3903515081074402,3.9692290868203752,0.008570542203480292,0.07025011432792783,-0.4913286664086961,-0.11840855524677218,-0.9013671875,-0.330322265625,-0.1181640625,534,1022,1021,1022,1022
A,-1.4065262802402159,3.9931769129753616,0.004557623881825182,-0.3190628627713088,-1.1478172160270168,-0.33978260104829894,-0.9013671875,-0.322509765625,-0.09765625,533,1023,1022,1023,1022
A,-1.426260344187821,4.031394299230226,0.0031149898340815056,-0.716009427656805,0.2643965244309986,-0.0497062651704363,-0.916259765625,-0.321044921875,-0.107666015625,536,1023,1023,1023,1022
A,-1.4433373347219591,4.0753271040509675,0.0008930044815970615,-0.42593309177894234,0.8445491961867237,-0.11077496746051274,-0.90771484375,-0.323486328125,-0.115478515625,536,1023,1022,1021,1023
A,-1.4556592024791777,4.119844899656896,0.004502366775592333,0.05498293875540883,0.9056178984768001,0.47701129208147197,-0.89501953125,-0.33251953125,-0.122314453125,534,1023,1023,1023,1023
A,-1.4818515333583107,4.145403792948606,-0.00027313953513610013,-1.3037956871987897,-0.9798782847293067,-0.4084848911246348,-0.904296875,-0.32666015625,-0.1142578125,535,1023,1023,1022,1023
A,-1.4879293058821585,4.1741099530718655,0.012411071015237989,0.5740669082210577,-0.7127027122102227,1.3396067119288002,-0.907470703125,-0.32568359375,-0.114013671875,533,1023,1021,1023,1022
A,-1.516421592269817,4.213389843745884,0.014301966164814219,-1.5709712597178738,0.3789003412248917,0.293805185211243,-0.894775390625,-0.326416015625,-0.115966796875,535,1023,1023,1023,1022
A,-1.544585906385132,4.244334377295639,0.004857697204819585,-1.4717346184964997,-0.4302599641186198,-0.8588665705139478,-0.90234375,-0.32421875,-0.1240234375,536,1022,1021,1021,1022
A,-1.5608365584984012,4.268556870042371,0.0050241656108532436,-0.3648643894888661,-1.1325500404544977,0.0800647271959758,-0.90869140625,-0.322509765625,-0.114501953125,535,1023,1021,1021,1021
A,-1.5810475880522536,4.300112922847021,0.006129385546621909,-0.7618109543743623,-0.39972561297358156,0.1945685439898689,-0.91259765625,-0.32568359375,-0.11328125,536,1023,1023,1023,1023
A,-1.5978583361273953,4.340168093332996,0.012800795651126155,-0.4488338551377209,0.439969043514968,0.7747212157455942,-0.89306640625,-0.322998046875,-0.1103515625,536,1021,1023,1023,1023
A,-1.6530626371783372,4.379613289349811,0.01763988641986367,-4.288528511626271,0.3789003412248917,0.5915151088753652,-0.88916015625,-0.317626953125,-0.176025390625,535,1023,1022,1022,1023
A,-1.6705478772291078,4.404898392514401,0.021341373881857157,-0.4870017940690188,-1.0256798114468642,0.4388433531501743,-0.8994140625,-0.327392578125,-0.11279296875,539,1022,1023,1023,1023
A,-1.711302224628483,4.413143749109287,0.01186573665528952,-2.7541773665881024,-2.7050691244239635,-0.9275688605902837,-0.903564453125,-0.31689453125,-0.1162109375,539,1021,1023,1021,1022
A,-1.722564002016228,4.441951119542274,0.016666779327511032,0.15421957997678282,-0.6669011854926655,0.560980757730327,-0.897705078125,-0.334716796875,-0.124267578125,540,1022,1021,1021,1022
A,-1.7643061230809352,4.466635338657618,0.01517404398346164,-2.8763147711682553,-1.0714813381644213,-0.08024061631547452,-0.90576171875,-0.32861328125,-0.1201171875,540,1022,1023,1023,1023
A,-1.820455136017976,4.480380011181361,-0.001660093934651193,-4.219826221549934,-2.1249164526682383,-1.6451261124986805,-0.894775390625,-0.318115234375,-0.11474609375,541,1022,1023,1021,1022
A,-1.8285373742187365,4.497633758502857,0.002396074483836294,0.4366623280683859,-1.8348401167903756,0.44647694093643386,-0.91064453125,-0.327392578125,-0.116943359375,542,1022,1023,1023,1023
A,-1.8454926889068601,4.5247812058783206,0.002363334699465328,-0.4030323284201638,-0.827206529004116,0.07243113940971624,-0.913330078125,-0.3330078125,-0.105224609375,542,1023,1022,1023,1023
A,-1.878268243229218,4.55149883053133,-0.006128768397285673,-1.9602842368171103,-0.8577408801491541,-0.774897104865093,-0.908935546875,-0.319091796875,-0.111328125,541,1023,1021,1023,1023
A,-1.9042154434864549,4.586770721548968,-0.004546960209829888,-1.2885285116262706,-0.010412635874344947,0.2632708340662048,-0.90673828125,-0.33837890625,-0.111083984375,546,1023,1023,1022,1023
A,-1.9355164282678181,4.6206955414967075,-0.004480308626427934,-1.7923453055194003,-0.13255004045449761,0.11059907834101401,-0.903076171875,-0.3427734375,-0.109619140625,542,1023,1020,1015,1015
A,-1.9808708558009203,4.6461374440435135,-0.011278933666858613,-3.2045590459774154,-0.9798782847293067,-0.606958173567383,-0.90234375,-0.32421875,-0.111328125,540,1022,1021,1021,1022
A,-2.0011465162675885,4.663082109396656,-0.011645057943413296,-0.7465437788018432,-1.8501072923628947,0.0037288493333803574,-0.906982421875,-0.326416015625,-0.113525390625,543,1023,1021,1022,1022
A,-2.0215629338472763,4.690294993931202,-0.0036610324736324265,-0.79997889330566,-0.842473704576635,0.8739578569669681,-0.919677734375,-0.339599609375,-0.0966796875,540,1021,1023,1023,1022
A,-2.0816211982141404,4.699845998649187,-0.019921582003920017,-4.609139198649171,-2.5371301931262535,-1.6069581735673828,-0.904541015625,-0.321533203125,-0.082763671875,540,1023,1021,1023,1023
A,-2.1167024119517164,4.731498218682796,-0.034541542478643605,-2.0976888169697823,-0.3233897351109862,-1.3626833644070775,-0.8994140625,-0.3271484375,-0.109130859375,542,1022,1022,1023,1023
A,-2.1384599377375215,4.760008805371834,-0.04283951512306574,-0.8152460688781791,-0.659267597706406,-0.7443627537200548,-0.906982421875,-0.330322265625,-0.11279296875,541,1021,1021,1021,1022
A,-2.1370227901341483,4.794831814925634,-0.03256315677341925,1.3984943891370882,-0.07911492595068081,1.1334998416997926,-0.9072265625,-0.3447265625,-0.11474609375,542,1022,1015,1021,1023
A,-2.156937109737459,4.8380463398407745,-0.030115590643816054,-0.6854750765117668,0.7834804938966474,0.38540823864635754,-0.899658203125,-0.337890625,-0.102783203125,542,1023,1023,1021,1023
A,-2.173344640690625,4.881536436554179,-0.02881576276899025,-0.349597213916347,0.8063812572554261,0.2709044218524643,-0.8994140625,-0.33056640625,-0.120849609375,543,1023,1022,1021,1021
A,-2.1848136197232995,4.912349932384785,-0.032453754302358945,0.15421957997678282,-0.45316072747739833,-0.27108031097196306,-0.902099609375,-0.322265625,-0.11328125,542,1021,1023,1023,1023
A,-2.198253370344671,4.95132333201748,-0.03830815033114598,-0.04425370246596527,0.3636331656523726,-0.4619200056284516,-0.904052734375,-0.317138671875,-0.094970703125,542,1023,1023,1021,1022
A,-2.201141098841732,4.986203033224411,-0.03282868412671145,1.001547824251592,-0.05621416259190219,0.6602173989517011,-0.89990234375,-0.34130859375,-0.115478515625,543,1023,1023,1023,1021
A,-2.209981690396113,5.018685058281522,-0.02807389132579487,0.451929503640905,-0.2775882083934289,0.5838815210891055,-0.881591796875,-0.345947265625,-0.120361328125,544,1023,1021,1023,1020
A,-2.224866029444809,5.050354784204005,-0.022535108452991014,-0.3037956871987897,-0.41499278854610067,0.644950223379182,-0.90576171875,-0.31298828125,-0.11572265625,544,1023,1022,1022,1022
A,-2.241382964044901,5.0810316549017065,-0.020821588627013506,-0.41066591620642323,-0.4913286664086961,0.2632708340662048,-0.901611328125,-0.318115234375,-0.12158203125,544,1023,1021,1023,1021
A,-2.2437521354409533,5.11274264696189,-0.02113113565061425,1.0091814120378515,-0.38445843740106245,0.06479755162345668,-0.898681640625,-0.3134765625,-0.110595703125,543,1023,1023,1022,1022
A,-2.2708466808257444,5.130113814996482,-0.044344731823750455,-1.1969254581911561,-1.7050691244239633,-2.2634467231857034,-0.901611328125,-0.33251953125,-0.116455078125,545,1023,1021,1023,1022
A,-2.290232230662715,5.162667647052189,-0.04417983643747474,-0.6091391986491714,-0.26995462060716935,0.125866253913533,-0.9072265625,-0.34228515625,-0.093505859375,542,1022,1021,1022,1023
A,-2.3059014309337273,5.188322368636293,-0.03835699622750476,-0.3037956871987897,-0.9875118725155663,0.6602173989517011,-0.921630859375,-0.343017578125,-0.113525390625,542,1023,1023,1023,1022
A,-2.3225348720507255,5.210267260313771,-0.04452279036090186,-0.349597213916347,-1.331023322897246,-0.5535230590635662,-0.900634765625,-0.318359375,-0.112060546875,542,1021,1022,1023,1022
A,-2.334731122899455,5.240303804767665,-0.05162282013185625,0.09315087768670649,-0.5218630175537342,-0.6145917613536425,-0.913330078125,-0.320068359375,-0.10400390625,544,1023,1022,1022,1021
A,-2.3631251205218913,5.29109594509262,-0.056411408774687324,-1.433566679565202,1.5850072114538993,-0.28634748654448217,-0.891845703125,-0.345458984375,-0.12353515625,544,1023,1023,1023,1023
A,-2.4017451445988587,5.312398815712623,-0.05817488796707744,-2.5328033207865763,-1.3920920251873221,-0.11077496746051274,-0.899658203125,-0.333984375,-0.1259765625,543,1021,1022,1023,1023
A,-2.419752779147627,5.307938501064254,-0.057872325022532124,-0.46410103071024,-3.9646111091567877,-0.011538326239138641,-0.902099609375,-0.3427734375,-0.114013671875,542,1023,1023,1022,1023
A,-2.449469897909558,5.336978070527996,-0.06637676338478275,-1.601505610862912,-0.5981988954163296,-0.7519963415063142,-0.909423828125,-0.331298828125,-0.105712890625,545,1023,1021,1023,1022
A,-2.4712225323282846,5.356530757150963,-0.07453402555557961,-0.8228796566644385,-1.5523973686987724,-0.7596299292925739,-0.893798828125,-0.3212890625,-0.1015625,545,1023,1023,1023,1022
A,-2.4914352516905094,5.3903935621803765,-0.07242607827312977,-0.6167727864354309,-0.10964927709571899,0.3396067119288002,-0.8759765625,-0.357666015625,-0.09765625,543,1023,1023,1022,1021
A,-2.526921870425442,5.410646744037238,-0.08226996505491553,-2.143490343687339,-1.460794315263658,-0.9199352728040242,-0.899169921875,-0.333740234375,-0.106201171875,544,1023,1023,1022,1021
A,-2.590788443309994,5.421082591192214,-0.08735596650414977,-5.044253702465965,-2.4684279030499177,-0.4924543567734898,-0.9072265625,-0.331298828125,-0.114990234375,543,1023,1022,1022,1023
A,-2.7504390459000647,5.374550103909316,-0.10914710998501784,-14.28852851162627,-8.010412635874344,-2.400851303338375,-0.880859375,-0.3740234375,-0.08203125,541,1021,1023,1021,1022
A,-2.776913161147951,5.396916460190712,-0.1226090625572725,-1.1587575192598585,-1.208885918317093,-1.2710803109719633,-0.89453125,-0.34619140625,-0.109130859375,542,1021,1022,1022,1021
A,-2.7967480352347285,5.413509560581763,-0.13167905891710685,-0.5709712597178735,-1.8195729412178565,-0.8665001583002074,-0.895263671875,-0.336181640625,-0.09912109375,543,1023,1021,1023,1022
A,-2.8037808048214505,5.4458663770723,-0.13336811318786793,0.6275020227248744,-0.28522179617968846,-0.05733985295669597,-0.9130859375,-0.339111328125,-0.1064453125,543,1023,1021,1023,1022
A,-2.8216966358669775,5.479137651923838,-0.12375590536688696,-0.5633376719316141,-0.24705385724839074,1.0724311394097163,-0.899658203125,-0.33544921875,-0.11767578125,541,1023,1023,1023,1023
A,-2.853935208757907,5.499528721919788,-0.1412607928547347,-1.7770781299468814,-1.4149927885461007,-1.690927639216238,-0.915283203125,-0.329345703125,-0.11328125,540,1023,1023,1022,1023
A,-2.870756106133324,5.530504024873764,-0.1446791735954441,-0.25799416048123247,-0.38445843740106245,-0.22527878425440595,-0.890869140625,-0.353515625,-0.095947265625,544,1023,1023,1023,1023
A,-2.896593453360032,5.562753405180057,-0.14568843441920923,-1.2045590459774156,-0.2775882083934289,0.018996024905899467,-0.895751953125,-0.348876953125,-0.102783203125,542,1023,1022,1023,1023
A,-2.928934005061077,5.5821691935806514,-0.1499896605265396,-1.8686811833819956,-1.560030956485032,-0.3779505399795966,-0.905517578125,-0.3388671875,-0.112548828125,542,1021,1023,1023,1022
A,-2.9465476011764005,5.6039419137249205,-0.14867092062102932,-0.4946353818552782,-1.3691912618285436,0.18693495620360945,-0.904052734375,-0.325439453125,-0.10400390625,542,1023,1023,1022,1021
A,-2.963907978979791,5.632147572417675,-0.14787631535003662,-0.433566679565202,-0.7127027122102227,0.17166778063109034,-0.90625,-0.335205078125,-0.10791015625,542,1023,1021,1023,1022
A,-2.9826902953459165,5.665626301204258,-0.14627037671799392,-0.5328033207865759,-0.17071797938579533,0.28617159742498344,-0.897216796875,-0.34716796875,-0.090087890625,541,1023,1023,1022,1021
A,-3.0181721197949645,5.687319904317402,-0.16194296513104722,-2.1053224047560413,-1.2852217961796886,-1.5000879445597493,-0.906494140625,-0.32861328125,-0.114501953125,540,1023,1023,1022,1021
A,-3.028267355258579,5.713804013724715,-0.15936808617597076,0.26872339677067597,-0.8959088190804518,0.3396067119288002,-0.89453125,-0.3291015625,-0.098876953125,544,1023,1022,1022,1022
A,-3.0448229941798237,5.756202735948049,-0.1537236501890026,-0.349597213916347,0.6995110282477925,0.7365532768142964,-0.892578125,-0.345703125,-0.091064453125,541,1023,1022,1022,1022
A,-3.064645758700565,5.7869093945621755,-0.14950946964741382,-0.6244063742216905,-0.4455271396911389,0.5380799943715484,-0.894775390625,-0.357666015625,-0.10986328125,544,1022,1021,1021,1023
B,-3.077324088559117,5.798827713686411,-0.15282959904047377,-0.7012699194427834,-2.513912829352376,-0.41115840574102047,-0.95947265625,-0.132080078125,-0.13720703125,1023,1023,1023,1023,379
B,-3.09160414514332,5.830178060381664,-0.15762454850746782,-0.8081401484504169,-0.5597143560699334,-0.44932634467231836,-0.949951171875,-0.14111328125,-0.129638671875,1023,1021,1023,1022,376
B,-3.101469382250769,5.856386403745697,-0.16035541716091206,-0.40355999577866125,-1.0864319133218416,-0.2737538255883487,-0.9541015625,-0.137451171875,-0.12939453125,1023,1021,1023,1023,377
B,-3.108649365515019,5.891160028504977,-0.1555521356804903,-0.15165159883209628,-0.2620044324058111,0.5277728919689031,-0.9677734375,-0.15625,-0.117919921875,1023,1021,1023,1022,377
B,-3.119834560143089,5.934378404267666,-0.1484785795127754,-0.6173004537939284,0.5624230485102193,0.7949484644879872,-0.95751953125,-0.142822265625,-0.134521484375,1021,1023,1023,1023,375
B,-3.1287559692016895,5.966346693947896,-0.13997459987851366,-0.44936152249621847,-0.5749815316424524,0.8712843423505825,-0.95849609375,-0.131591796875,-0.130615234375,1022,1021,1021,1021,374
B,-3.1444942909660996,6.003759693906807,-0.1372702418075743,-1.0371477820382033,0.005171140113272826,0.329299609526155,-0.943115234375,-0.137451171875,-0.153076171875,1022,1023,1021,1023,376
B,-3.142748389658505,6.049653694324165,-0.13019784297414408,0.6727758820839342,0.8295986210293033,0.8102156400605062,-0.947021484375,-0.140625,-0.137451171875,1022,1022,1022,1021,378
B,-3.159999510361804,6.073346864026445,-0.13578271358017485,-1.1287508354733178,-1.3230731346958875,-0.571463749252471,-0.95166015625,-0.13232421875,-0.131103515625,1023,1023,1023,1023,375
B,-3.18674518510133,6.0965069289804426,-0.14687150732400353,-2.0218806064656842,-1.345973898054666,-1.121082069863158,-0.954345703125,-0.132080078125,-0.131591796875,1021,1022,1022,1022,376
B,-3.1690936429163297,6.122919878491185,-0.13352850278813683,2.161325500404545,-1.1551342033981775,1.3216660217398954,-0.93603515625,-0.13037109375,-0.126220703125,1023,1023,1023,1023,377
B,-3.1898240857974938,6.154107949297784,-0.12231122615973651,-1.655468392725226,-0.6665845850775669,1.1384599148696666,-0.958251953125,-0.134033203125,-0.11279296875,1023,1023,1023,1022,377
B,-3.1950952070424834,6.208425671418884,-0.11444792506855495,-0.02188060646568407,1.6692932775178528,0.9399866324269184,-0.946533203125,-0.145751953125,-0.12255859375,1022,1021,1023,1022,372
B,-3.210964747809509,6.254358073373139,-0.11641613959287754,-1.0524149576107222,0.8754001477468606,-0.09054771871811984,-0.98046875,-0.129638671875,-0.136474609375,1021,1023,1023,1021,374
B,-3.2136063826192887,6.293464226790363,-0.10775668736511589,0.20712702712210213,0.1425757202659446,0.9323530446406588,-0.954833984375,-0.140380859375,-0.130126953125,1023,1021,1022,1023,377
B,-3.2204603146116533,6.341709118009623,-0.10787256008802557,-0.22798747669469172,1.0891406057621278,0.1002919759383687,-0.944580078125,-0.110595703125,-0.116455078125,1022,1023,1023,1023,374
B,-3.232847104132903,6.385984755943781,-0.11052212242189356,-0.6402012171527072,0.7227283920216697,-0.15925000879445572,-0.953125,-0.140625,-0.139892578125,1021,1023,1023,1021,374
B,-3.234527238081033,6.417509415569945,-0.10700269394559792,0.37506595841981205,-0.5826151194287119,0.3827347240299718,-0.943603515625,-0.142822265625,-0.135498046875,1023,1023,1023,1023,375
B,-3.2402744255670997,6.452540960862409,-0.10369861327844893,-0.0829493087557604,-0.2391036690470325,0.37510113624371233,-0.9443359375,-0.128662109375,-0.139404296875,1021,1023,1023,1022,375
B,-3.248059304875432,6.508558717390295,-0.10919893469133514,-0.13638442325957728,1.9135680866781584,-0.3729904668097228,-0.95263671875,-0.143798828125,-0.1318359375,1022,1023,1021,1023,374
B,-3.255323157454395,6.5304819926727795,-0.10491554464596929,-0.18981953776339405,-1.5444471804974143,0.40563548738875044,-0.949462890625,-0.144775390625,-0.1298828125,1022,1023,1023,1023,377
B,-3.2532530998404168,6.574780902355255,-0.08832973313115265,0.5735392408625601,0.6158581630140362,1.7491469377704298,-0.94873046875,-0.13720703125,-0.12060546875,1023,1021,1022,1023,377
B,-3.2450770280442374,6.61629311832967,-0.07977305412288858,1.2987300805572166,0.3868505294262499,0.9399866324269184,-0.952392578125,-0.143798828125,-0.12744140625,1023,1023,1023,1023,375
B,-3.254758138458305,6.6571587160249575,-0.08361283175906072,-0.3806592324198826,0.3868505294262499,-0.2966545889471275,-0.96484375,-0.135986328125,-0.127685546875,1023,1022,1023,1021,374
B,-3.2681772244531984,6.713655155745024,-0.09745575251922034,-0.6860027438702643,1.9975375523270131,-1.2050515355120128,-0.95654296875,-0.12158203125,-0.135498046875,1021,1022,1021,1022,375
B,-3.2411103299139032,6.764354889513447,-0.0873451427549483,3.1613255004045446,1.2952474759911354,1.146093502655926,-0.94677734375,-0.141357421875,-0.126708984375,1023,1023,1021,1023,371
B,-3.272002754229749,6.792278020775766,-0.10588545399441733,-2.3119569423435467,-0.8192563408027578,-1.8233721461990358,-0.9580078125,-0.138916015625,-0.135498046875,1023,1022,1023,1022,379
B,-3.2646551420909553,6.816998529236347,-0.09406764569441996,1.1689590881908045,-1.3078059591233684,1.1689942660147046,-0.943115234375,-0.1416015625,-0.11376953125,1023,1023,1023,1023,375
B,-3.269335975639292,6.867881064513742,-0.09634608439629817,0.10025679811446858,1.3792169416399904,-0.08291413093186017,-0.964111328125,-0.1357421875,-0.1201171875,1022,1022,1021,1022,375
B,-3.276874635449892,6.915853133951707,-0.09423473623042361,-0.17455236219087494,1.0738734301896087,0.3445667850986741,-0.96142578125,-0.152587890625,-0.116943359375,1023,1021,1021,1021,374
B,-3.296841616601494,6.976534705580315,-0.09545169101524374,-1.4646286980687375,2.348682590494952,0.07739121257959014,-0.9521484375,-0.126953125,-0.138916015625,1022,1023,1023,1023,377
B,-3.2991446354728273,6.99161596917538,-0.0933218758461371,0.2529285538396594,-2.223836493474513,0.14609350265592602,-0.953369140625,-0.124755859375,-0.142578125,1023,1017,1022,1023,376
B,-3.3029249756825125,7.0244875034764815,-0.09881672423860088,0.2300277904808808,-0.3994090125584829,-0.5027614591761351,-0.952392578125,-0.13427734375,-0.113525390625,1019,1023,1021,1023,374
B,-3.3221194075653435,7.076125736114321,-0.11820867447506694,-1.1363844232595772,1.5547894607239598,-1.7699370316952192,-0.966552734375,-0.137451171875,-0.113525390625,1022,1023,1022,1023,375
B,-3.327075083882345,7.121574559619362,-0.11365100977832847,0.039188095824392255,0.8066978576705247,0.5735744186864604,-0.953125,-0.14697265625,-0.1337890625,1021,1022,1023,1021,375
B,-3.3179010891388803,7.160506007019925,-0.08944626079461487,1.2071270271221022,0.04333907904457054,2.4819713652513458,-0.940673828125,-0.145263671875,-0.12353515625,1023,1022,1023,1022,376
B,-3.333459379640997,7.221710862919448,-0.08722703034392536,-1.0371477820382033,2.3868505294262503,0.4285362507475291,-0.94189453125,-0.13330078125,-0.137451171875,1022,1022,1023,1021,376
B,-3.3561112141957046,7.251626705797798,-0.10120868515025315,-1.5485981637175925,-0.6436838217187882,-1.357723291237204,-0.9599609375,-0.13427734375,-0.139404296875,1023,1023,1023,1023,375
B,-3.361064897733782,7.282874198115142,-0.09235680178093618,-0.02188060646568407,-0.6360502339325288,0.9170858690681398,-0.949462890625,-0.14501953125,-0.13134765625,1021,1023,1022,1022,376
B,-3.3681557211597997,7.334660678578381,-0.07637470380867142,-0.28905617898476804,1.3792169416399904,1.7491469377704298,-0.93896484375,-0.15380859375,-0.120849609375,1022,1022,1023,1022,376
B,-3.3845806207239666,7.3745738028822805,-0.07302180541157724,-1.1821859499771346,0.2494459492735782,0.41326907517501,-0.962646484375,-0.125244140625,-0.12451171875,1022,1022,1022,1021,376
B,-3.371729888507885,7.427632287805762,-0.05561675768575274,1.6575087065114151,1.4937207584338834,1.894185105709361,-0.9462890625,-0.147705078125,-0.1259765625,1023,1023,1017,1023,372
B,-3.396490885407432,7.474016330628972,-0.06343687708962316,-1.8310409118091955,0.967003201181975,-0.6477996271150663,-0.94189453125,-0.132568359375,-0.138427734375,1021,1023,1021,1023,373
B,-3.404818145203317,7.53134873658953,-0.05699599009718771,-0.28905617898476804,1.9899039645407537,0.8407499912055443,-0.94775390625,-0.156005859375,-0.135009765625,1022,1022,1022,1022,374
B,-3.415566950585888,7.567540355116328,-0.05472381043151206,-0.5638653392901116,-0.1093326766806203,0.29113167059485734,-0.94970703125,-0.13330078125,-0.129638671875,1022,1022,1023,1023,373
B,-3.416695140426028,7.597299521150297,-0.055077878750660184,0.43613466070988843,-0.7352868751539028,-0.00657825306926485,-0.947021484375,-0.13330078125,-0.14208984375,1022,1021,1021,1022,372
B,-3.4196072731093063,7.639323510057413,-0.05253079124270553,0.26056214162591895,0.4784535828613644,0.3598339606711932,-0.945556640625,-0.14453125,-0.130859375,1023,1021,1023,1023,376
B,-3.4330453651278354,7.670749500791448,-0.04899508481178495,-0.8386744995954551,-0.5902487072149715,0.39036831181623133,-0.9541015625,-0.13671875,-0.13720703125,1023,1023,1022,1022,374
B,-3.43769490157442,7.705558564296606,-0.038791167718946515,-0.05241495761072229,-0.2925387835508493,1.0697576247933307,-0.94677734375,-0.134033203125,-0.1552734375,1021,1021,1022,1023,375
B,-3.4425645581116986,7.742446576806848,-0.0357528543888306,-0.02188060646568407,-0.048263974390543966,0.3674675484574528,-0.94873046875,-0.12353515625,-0.138427734375,1022,1021,1023,1023,373
B,-3.441541368721418,7.778184756649538,-0.03330571935196574,0.6040735920075984,-0.15513420339817754,0.30639884616737645,-0.968505859375,-0.134765625,-0.121337890625,1023,1023,1021,1021,374
B,-3.4448115045505934,7.821579907824702,-0.023061373228031326,0.11552397368698764,0.5700566362964788,1.130826327083407,-0.9501953125,-0.14453125,-0.1240234375,1022,1021,1022,1023,373
B,-3.461331584652591,7.87874837074624,-0.020888143769748888,-1.174552362190875,1.9822703767544942,0.40563548738875044,-0.966064453125,-0.12646484375,-0.13427734375,1022,1023,1023,1023,375
B,-3.465975061936608,7.911787047118197,-0.009796232598873892,-0.0829493087557604,-0.4757448904210783,1.146093502655926,-0.944091796875,-0.13037109375,-0.13720703125,1021,1022,1023,1023,375
B,-3.464079841023447,7.936445136385018,0.004431933377924154,0.5277377141450029,-1.3307067224821472,1.4056354873887504,-0.956787109375,-0.1328125,-0.126220703125,1022,1023,1022,1022,373
B,-3.4777729696040627,7.961257539469056,0.0027788711761286217,-0.8386744995954551,-1.2238364934745134,-0.16688359658071517,-0.948974609375,-0.124267578125,-0.135498046875,1021,1023,1022,1023,373
B,-3.4823178208732295,7.98638819580038,0.0050520390060209185,0.06972244696943042,-1.2085693179019943,0.230062968304781,-0.942138671875,-0.13623046875,-0.129638671875,1023,1021,1021,1022,371
B,-3.492971292354657,8.007566958331463,0.014200343280780101,-0.6325676293664475,-1.6436838217187884,0.8865515179231016,-0.941650390625,-0.13720703125,-0.13232421875,1023,1021,1023,1023,375
B,-3.5045913916952673,8.036774515673226,0.023245756367531806,-0.7318042705878216,-0.8421571041615363,0.9247194568543993,-0.954833984375,-0.138427734375,-0.127197265625,1021,1023,1023,1023,372
B,-3.510366963350186,8.060715387129061,0.03966943498080351,-0.2661554156259895,-1.414676188131002,1.6193759454040175,-0.95458984375,-0.134521484375,-0.12255859375,1021,1023,1022,1023,375
B,-3.519732060163945,8.100532964405119,0.05913881067480903,-0.6783691560840048,0.15020930805220412,2.016322510289514,-0.939697265625,-0.130126953125,-0.115478515625,1022,1021,1021,1023,375
B,-3.5349629365812323,8.140686077107322,0.07985032698191162,-1.3043233545572872,0.17311007141098275,2.1384599148696664,-0.95361328125,-0.12646484375,-0.120361328125,1022,1021,1022,1023,373
B,-3.5475163275056483,8.18565745798265,0.09322758121957926,-0.9837126675343864,0.6921940408766315,1.4361698385337887,-0.953369140625,-0.11328125,-0.1181640625,1023,1023,1021,1023,372
B,-3.56435015894628,8.225019098450932,0.09111962056508256,-1.1974531255496537,0.22654518591479955,-0.1287156576494175,-0.9384765625,-0.109619140625,-0.125244140625,1021,1023,1021,1023,374
B,-3.53903467735346,8.266577747066771,0.11265413710839028,2.74911175994653,0.3105146515636545,2.230062968304781,-0.942138671875,-0.128662109375,-0.12353515625,1021,1023,1023,1022,372
B,-3.565592984237504,8.292975203476212,0.10216358835468745,-2.006613430893165,-1.0100960354592463,-1.0294790164280434,-0.938720703125,-0.12060546875,-0.1298828125,1022,1023,1023,1023,374
B,-3.5943385411303503,8.319871788513428,0.08430349540676002,-2.2203538889084324,-0.9261265698103913,-1.7699370316952192,-0.963623046875,-0.097412109375,-0.111572265625,1022,1021,1021,1022,373
B,-3.59412218154006,8.3654083151219,0.0827384079088904,0.5888064164350792,0.8524993843880819,-0.02184542864178396,-0.94921875,-0.134521484375,-0.123046875,1022,1021,1022,1023,373
B,-3.6015549499362716,8.398630913230061,0.08895825762806316,-0.27378900341224904,-0.42230977591726154,0.6728110599078344,-0.940185546875,-0.13671875,-0.139404296875,1023,1023,1022,1023,372
B,-3.6134336473755777,8.449732992373573,0.1004191794912506,-0.823407324022936,1.3257818271361734,1.298765258381117,-0.95361328125,-0.13232421875,-0.11474609375,1023,1022,1022,1023,373
B,-3.628316633266043,8.49628887890609,0.09896529788002326,-0.9989798431069055,0.9441024378231965,-0.014211840855524294,-0.950927734375,-0.114501953125,-0.12158203125,1022,1023,1023,1023,372
B,-3.636736893786287,8.544298260943817,0.09362252282663298,-0.1974531255496536,1.1273085446934255,-0.3729904668097228,-0.945556640625,-0.138916015625,-0.14013671875,1022,1022,1022,1022,372
B,-3.644635222840198,8.585804131311315,0.08809667743202196,-0.20508671333591316,0.4708199950751049,-0.4416927568860587,-0.945556640625,-0.12255859375,-0.130615234375,1023,1021,1023,1023,372
B,-3.6382814299783597,8.605884863553776,0.08728269867653847,1.1460583248320257,-1.6971189362226051,-0.1134484820768984,-0.9638671875,-0.124755859375,-0.112548828125,1022,1023,1022,1023,374
B,-3.6341112930333996,8.656356745092802,0.08115770844864285,1.023920920251873,1.3715833538537308,-0.4416927568860587,-0.96142578125,-0.128173828125,-0.129150390625,1022,1023,1021,1022,375
B,-3.656796280427893,8.697428452678835,0.059441437084081374,-1.373025644633623,0.5395222851514407,-2.029479016428043,-0.947998046875,-0.140380859375,-0.132080078125,1021,1021,1022,1023,372
B,-3.670564673957836,8.733937163304644,0.058252952022397934,-0.8157737362366766,-0.048263974390543966,-0.03711260421430307,-0.944580078125,-0.13330078125,-0.1298828125,1023,1022,1023,1021,373
B,-3.68000641659499,8.753780016472527,0.05714586912438129,-0.38829282020614214,-1.7123861117951242,-0.13634924543567695,-0.95556640625,-0.13330078125,-0.142333984375,1023,1021,1023,1023,372
B,-3.6943562510613397,8.781724053843307,0.043536668945237264,-0.6554683927252261,-0.8192563408027578,-1.3119217645196464,-0.94091796875,-0.140380859375,-0.1318359375,1023,1023,1022,1022,372
B,-3.6884243415791897,8.820877880413969,0.045210247283596024,1.1460583248320257,0.20364442255602092,0.2682309072360787,-0.949951171875,-0.14404296875,-0.11767578125,1023,1021,1023,1023,373
B,-3.7064879851292143,8.866415160092593,0.0460075350544856,-1.2508882400534704,0.8448657966018224,0.22242938051852146,-0.950927734375,-0.141357421875,-0.1181640625,1021,1023,1023,1023,373
B,-3.708674279960061,8.906596140086835,0.056954540846381754,0.15369191261828535,0.24181236148731863,1.1842614415872237,-0.957275390625,-0.134765625,-0.128662109375,1023,1021,1023,1022,370
B,-3.7241557201356392,8.940794747730095,0.062149639494593095,-1.1211172476870581,-0.3230731346958875,0.5735744186864604,-0.950927734375,-0.12451171875,-0.1357421875,1021,1022,1023,1022,373
B,-3.7407728696428406,8.96521491353547,0.03554066370745105,-0.739437858374081,-1.0940655011081013,-2.624898863756288,-0.945068359375,-0.12451171875,-0.120361328125,1022,1022,1023,1021,372
B,-3.7467697267664324,8.999190476731405,0.02046767377040129,0.18422626376332352,-0.20856931790199434,-1.41879199352728,-0.950927734375,-0.135498046875,-0.134521484375,1023,1023,1023,1023,375
B,-3.7538236718444047,9.023540048372844,0.0234440121767027,-0.15165159883209628,-1.2772716079783302,0.30639884616737645,-0.94921875,-0.1494140625,-0.129150390625,1022,1021,1022,1023,372
B,-3.752390721374014,9.03998883749587,0.037435666620575264,0.5048369507862243,-2.1398670278256584,1.3369331973124146,-0.94921875,-0.143798828125,-0.139892578125,1022,1023,1022,1022,374
B,-3.764005198507991,9.065655256712214,0.04327060645828481,-0.7470714461603407,-1.1780349667569563,0.5812080064727199,-0.96435546875,-0.126708984375,-0.118408203125,1023,1023,1023,1023,374
B,-3.7833167626420963,9.10033635624367,0.03612056623404302,-1.3653920568473636,-0.2009357301157348,-0.6477996271150663,-0.982666015625,-0.1142578125,-0.125,1023,1023,1023,1022,374
B,-3.793459803324737,9.150561650269918,0.028420650430978328,-0.3653920568473635,1.3639497660674713,-0.5867309248249901,-0.94921875,-0.130126953125,-0.117919921875,1021,1021,1021,1022,374
B,-3.8067050389007018,9.192447402758651,0.0326973503623119,-0.7709220107644137,0.46881485911281523,0.5551060611390588,-0.9482421875,-0.15625,-0.098876953125,1023,1004,1023,1023,369
B,-3.807026936140677,9.232766219690712,0.04713974292745535,0.3664825693882581,0.2474408133112885,1.5474724733527994,-0.939697265625,-0.15673828125,-0.104736328125,1022,1005,1023,1022,371
B,-3.8130810000978936,9.253241135864247,0.039993187096036414,0.08403982129665499,-1.5998874309635207,-0.7197030991662847,-0.947021484375,-0.142822265625,-0.113525390625,1022,1005,1023,1021,369
B,-3.8109971504717275,9.291818048528253,0.030290789556003592,0.9924367678615406,0.23217363773876942,-0.8418405037464374,-0.948486328125,-0.158203125,-0.09130859375,1019,1002,1023,1022,367
B,-3.8298580269338522,9.329384151449212,0.020483546671987162,-1.0533647588560167,0.14057058430365493,-0.8494740915326968,-0.94970703125,-0.1708984375,-0.09423828125,1020,1007,1023,1022,367
B,-3.8206197022326083,9.378932629910894,0.03155072959032442,1.3893833327470366,1.1940056988074716,1.2802969008337153,-0.952392578125,-0.163330078125,-0.1005859375,1018,1004,1022,1021,369
B,-3.8531917097361794,9.409806792488713,0.026921892727293256,-2.557181552749147,-0.5693530798184825,-0.3914588243571244,-0.938720703125,-0.15478515625,-0.116943359375,1018,1003,1022,1022,369
B,-3.8437475657487763,9.42181713875043,0.028341277471109733,1.534421500685968,-2.493017201955887,0.07419003060470775,-0.945556640625,-0.1533203125,-0.1044921875,1018,1006,1023,1022,369
B,-3.8550373897070966,9.464606799780004,-0.004017256838266961,0.03060470679283822,0.804692721708235,-3.040313786189185,-0.946044921875,-0.158447265625,-0.0830078125,1016,1004,1022,1022,367
B,-3.875317026755264,9.504875872809663,-0.011947584283445806,-1.2213036901537266,0.4001125690364794,-0.6433672213036892,-0.943359375,-0.169921875,-0.104736328125,1015,1003,1023,1023,373
B,-3.865175954315981,9.530334868301278,-0.00261463282264235,1.519154325113449,-1.1953072782917649,0.952052626024555,-0.93603515625,-0.163330078125,-0.124267578125,1016,1004,1023,1023,368
B,-3.8839220423776633,9.550260789627083,-0.011620871531682439,-1.1449678122911313,-1.6380553698948184,-0.9029092060365136,-0.94970703125,-0.1455078125,-0.098388671875,1015,1003,1022,1021,368
B,-3.88401645253423,9.593973763005438,-0.006546448745256236,0.5496886762584872,0.6520209659830442,0.6543427023604329,-0.949462890625,-0.162353515625,-0.10107421875,1013,1003,1021,1021,365
B,-3.9168206525975173,9.615948627414861,-0.01832340222884213,-2.427410560382734,-1.4014141485207725,-1.147184015196819,-0.958740234375,-0.16748046875,-0.1044921875,1013,1001,1023,1021,369
B,-3.925315951288856,9.649248171893916,-0.023046384112997347,-0.15260140007739076,-0.3250782706581771,-0.38382523657086476,-0.92529296875,-0.151611328125,-0.094970703125,1016,1005,1021,1023,368
B,-3.9379522947662133,9.700979136659308,-0.02549948993761677,-0.5571815527491464,1.5069827980441128,-0.025046610616666354,-0.952880859375,-0.168701171875,-0.10595703125,1014,1002,1023,1022,367
B,-3.9457287767922917,9.745233457647911,-0.026574872505028886,-0.09916628557357399,0.7512576072044183,0.05892285503218864,-0.944091796875,-0.165771484375,-0.1064453125,1013,1001,1023,1023,368
B,-3.9452005231503873,9.790043448664445,-0.021561512995509333,0.5878566151897848,0.7588911949906778,0.6543427023604329,-0.95263671875,-0.15673828125,-0.09716796875,1011,1000,1023,1023,368
B,-3.955833891688113,9.845634607364426,-0.02881749469565854,-0.3129067435888411,1.9191965385021281,-0.4754282900059792,-0.94677734375,-0.157470703125,-0.099853515625,1011,1003,1021,1023,368
B,-3.9752601333622204,9.876874216995796,-0.038933568161116296,-1.114433461146093,-0.48538361416962744,-0.9181763816090327,-0.94580078125,-0.16455078125,-0.110595703125,1011,1001,1023,1021,369
B,-3.9926105859595182,9.90987838605881,-0.04827695075352056,-0.9846624687796808,-0.3250782706581771,-0.8418405037464374,-0.942138671875,-0.146240234375,-0.11376953125,1012,1003,1021,1023,365
B,-3.9972332358644587,9.929660898703558,-0.05382899208335879,0.2748795159531436,-1.660956133253597,-0.5517641678685747,-0.937255859375,-0.15966796875,-0.103271484375,1008,1001,1023,1023,368
B,-3.9943826486994145,9.960352856569152,-0.06287210595901253,1.0000703556478001,-0.5617194920322229,-0.8342069159601777,-0.9658203125,-0.142578125,-0.089111328125,1009,1003,1021,1023,366
B,-4.0075438606072575,10.01780867030478,-0.07940020533464265,-0.3587082703063984,2.1787385232349528,-1.360924473212086,-0.958984375,-0.17236328125,-0.08154296875,1008,1000,1023,1021,366
B,-4.027235578621675,10.069959975060266,-0.08566294526792537,-1.1678685756499099,1.5833186759067084,-0.38382523657086476,-0.942626953125,-0.17431640625,-0.104736328125,1009,1001,1021,1023,367
B,-4.033684997665573,10.101996168281689,-0.07873806370776303,-0.08389911000105488,-0.5159179653146657,0.768846519154326,-0.939453125,-0.1708984375,-0.109130859375,1009,1001,1023,1023,366
B,-4.039014711862352,10.125406660863232,-0.07730800340368833,0.068772645724136,-1.3479790340169557,0.15815949625356274,-0.947265625,-0.1572265625,-0.110595703125,1010,999,1022,1023,368
B,-4.043434733037931,10.142565484842011,-0.08415183139670306,0.3130474548844413,-1.912864530200162,-0.696802335807506,-0.939697265625,-0.157470703125,-0.12451171875,1007,1002,1021,1022,364
B,-4.073407668306531,10.159853422259266,-0.1144774120007735,-1.7938227741231925,-1.7296584233299328,-2.9945122594716285,-0.947021484375,-0.169189453125,-0.09716796875,1009,991,1015,1012,368
B,-4.0806262394943635,10.1865373764163,-0.11988682721739495,0.038238294579097776,-0.9662996447039787,-0.48306187779223886,-0.958740234375,-0.17041015625,-0.087890625,1008,991,1020,1022,366
B,-4.08379820939104,10.245829800670833,-0.11283684394818554,0.2748795159531436,2.209272874379991,0.9825869771695932,-0.94775390625,-0.1826171875,-0.091552734375,1006,1001,1021,1023,367
B,-4.091698147011946,10.281178776534341,-0.1177979986283016,-0.07626552221479532,-0.11133781264290994,-0.38382523657086476,-0.9453125,-0.15673828125,-0.104736328125,1010,998,1022,1022,365
B,-4.10193020809881,10.312505477534115,-0.12702350203844773,-0.25183804129876486,-0.48538361416962744,-0.8342069159601777,-0.94384765625,-0.1513671875,-0.10595703125,1003,1000,1021,1023,366
B,-4.112475105494934,10.342068984112174,-0.13265904007292556,-0.2900059802300625,-0.6762233088261161,-0.48306187779223886,-0.93359375,-0.165283203125,-0.0966796875,1004,991,1015,1023,365
B,-4.117875584967567,10.377683765984534,-0.12941082805953014,0.068772645724136,-0.1342385760016886,0.4329686565589062,-0.944091796875,-0.16845703125,-0.09033203125,1008,1001,1023,1023,365
B,-4.129987062476934,10.41058300422525,-0.128047334218419,-0.5800823161079252,-0.393780560734513,0.2268617863298985,-0.94580078125,-0.1650390625,-0.10595703125,1007,1000,1023,1021,367
B,-4.143132130707228,10.441194680779608,-0.1359452817973522,-0.5495479649628869,-0.5617194920322229,-0.7044359235937656,-0.94970703125,-0.156982421875,-0.096435546875,1004,1000,1023,1021,367
B,-4.1536482293695505,10.455910082826316,-0.15267326520450053,-0.10679987335983354,-2.080803461497872,-1.681535160234987,-0.94091796875,-0.160400390625,-0.10400390625,1004,998,1023,1023,367
B,-4.142008021051776,10.514699795520329,-0.1514677501867464,1.816864248777571,2.1940056988074716,0.40243430541386804,-0.941162109375,-0.169921875,-0.09130859375,1003,1000,1023,1022,367
B,-4.157003813799307,10.531991923560224,-0.15520535044989406,-0.732754071833116,-1.9052309424139025,-0.3761916487846053,-0.941162109375,-0.17578125,-0.109619140625,1005,999,1022,1023,367
B,-4.1698627172856915,10.567311102458422,-0.15555925134021767,-0.6411510183980014,-0.14187216378794812,0.07419003060470775,-0.946533203125,-0.160888671875,-0.09619140625,1008,999,1023,1021,364
B,-4.180796415432736,10.588632981311385,-0.15543662734594055,-0.4884792626728107,-1.546452316459704,0.01312132831463142,-0.948486328125,-0.15234375,-0.10693359375,1003,1001,1023,1023,364
B,-4.177080305338801,10.636761866442622,-0.15462116305444262,1.0229711190065787,1.1329369965173954,0.28793048861997494,-0.939697265625,-0.16748046875,-0.090576171875,1003,1000,1023,1023,367
B,-4.180600991054572,10.660420722437916,-0.1583314542380035,0.3588489816019986,-1.2792767439406199,-0.33802370985330765,-0.947021484375,-0.161865234375,-0.102294921875,1005,997,1023,1021,367
B,-4.186007242334187,10.684360985298492,-0.16549705199751616,0.23671157702184586,-1.225841629436803,-0.6739015724487274,-0.94970703125,-0.162841796875,-0.10546875,1007,1001,1023,1022,365
B,-4.203891652943619,10.72544168940412,-0.17719374760207707,-0.9388609420621237,0.5146163858303725,-0.9945122594716282,-0.947998046875,-0.15966796875,-0.094482421875,1004,1000,1022,1023,367
B,-4.213285046022528,10.744621607411682,-0.19245910159791815,0.007703943434059668,-1.6380553698948184,-1.4983290533647577,-0.941162109375,-0.16650390625,-0.098876953125,1006,997,1022,1023,365
B,-4.224212097585319,10.79449041084436,-0.2034928554633054,-0.18313575122242898,1.4001125690364793,-0.8494740915326968,-0.92919921875,-0.17529296875,-0.097900390625,1001,996,1023,1023,365
B,-4.242461139933686,10.85101093534409,-0.1988996806197602,-1.2136701023674672,1.9497308896471663,0.7306785802230283,-0.94921875,-0.177490234375,-0.099853515625,1004,1000,1023,1022,367
B,-4.2602966672028195,10.878438256541612,-0.2015400204897024,-1.114433461146093,-0.9128645302001619,-0.20825271748689533,-0.93798828125,-0.154052734375,-0.10498046875,1003,995,1023,1023,364
B,-4.267070115293568,10.916509631753884,-0.20695449559433127,0.053505470151616885,0.1711049354486931,-0.39909241214338387,-0.938720703125,-0.15771484375,-0.07861328125,1004,995,1023,1021,363
B,-4.262841451655456,10.937867219939694,-0.2183402359078222,1.33594821824322,-1.4395820874520704,-1.0937489006930021,-0.949951171875,-0.177734375,-0.09521484375,1004,998,1023,1021,365
B,-4.270616586751906,10.985385602198926,-0.22912726674980735,0.11457417244169321,1.1634713476624334,-0.8418405037464374,-0.952880859375,-0.176025390625,-0.081787109375,1001,997,1023,1023,364
B,-4.281116386893133,11.03991111012001,-0.23102032911828346,-0.3281739191613602,1.7970591339219755,0.0818236183909673,-0.94970703125,-0.173828125,-0.114501953125,1005,997,1023,1023,363
B,-4.290074386176232,11.06748818892457,-0.2281015104326478,-0.28237239244380297,-0.928131705772681,0.3489991909100512,-0.943115234375,-0.16845703125,-0.107421875,1005,995,1022,1022,365
B,-4.288746508480447,11.108522711545811,-0.22171565387464204,0.6565589052661207,0.3848453934639603,0.7841136947268451,-0.93994140625,-0.162353515625,-0.091064453125,1002,995,1023,1022,366
B,-4.306836763183905,11.148487759388162,-0.2335146761474333,-1.0075632321384596,0.4001125690364794,-1.0174130228304068,-0.93798828125,-0.142578125,-0.09033203125,1004,995,1023,1022,362
B,-4.307936578957349,11.170127542479385,-0.2445759875911065,0.7710627220600138,-1.4166813240932916,-1.0632145495479641,-0.935791015625,-0.166748046875,-0.100830078125,1008,997,1021,1023,366
B,-4.322387650091503,11.179104526430537,-0.26434090124765625,-0.39687620923769606,-2.6151546065360396,-2.0097794350441474,-0.94189453125,-0.16748046875,-0.09912109375,1005,997,1021,1023,363
B,-4.304984898676879,11.203091479859664,-0.27110029604518016,2.5954902029760443,-1.2029408660780245,-0.612832870158651,-0.952880859375,-0.18603515625,-0.0888671875,1003,998,1023,1023,366
B,-4.30903081161581,11.247620269333419,-0.2809770131831835,0.4962535617546703,0.8657614239983114,-0.7655046258838418,-0.947265625,-0.18115234375,-0.078125,1001,999,1021,1023,364
B,-4.325283959883403,11.280981739399246,-0.29171298322847217,-0.7480212474056351,-0.24874239279558172,-0.9410771449678115,-0.95458984375,-0.171142578125,-0.083251953125,1005,995,1022,1023,364
B,-4.34522479143474,11.320971658018783,-0.2906314086839607,-1.3129067435888413,0.3314102789601435,0.27266331304745584,-0.951416015625,-0.17919921875,-0.107666015625,1004,997,1022,1023,365
B,-4.352601093266139,11.367322886769879,-0.2927208175638951,-0.09153269778731443,0.972631653005945,-0.009779435044147244,-0.947998046875,-0.15283203125,-0.085693359375,1006,995,1023,1021,364
B,-4.375028272248083,11.41028939243888,-0.3081798252854294,-1.282372392443803,0.7436240194181587,-1.3303901220670482,-0.942138671875,-0.164794921875,-0.10107421875,1003,995,1023,1022,366
B,-4.3803822167663435,11.448378803476842,-0.30906087932035514,0.21381081366306726,0.16347134766243354,0.07419003060470775,-0.93505859375,-0.184326171875,-0.100341796875,1005,998,1022,1022,365
B,-4.397763349310348,11.459385548266223,-0.3000514438969415,-1.2060365145812075,-2.6151546065360396,0.8299152214444023,-0.94921875,-0.180908203125,-0.115478515625,1003,998,1023,1023,361
B,-4.405605167581826,11.479536640669869,-0.2933267822012207,-0.23657086572624575,-1.6914904843986351,0.669609877932952,-0.949951171875,-0.173828125,-0.08984375,1003,996,1023,1021,364
B,-4.4289935865734265,11.492170955689604,-0.2985319168421945,-1.580082316107925,-2.3556126218032154,-0.5593977556548342,-0.950439453125,-0.1669921875,-0.084228515625,1001,996,1022,1022,364
B,-4.445860009913748,11.543812921011602,-0.302632896874051,-0.9693952932071617,1.522249973616632,-0.15481760298307856,-0.95556640625,-0.16259765625,-0.0810546875,1003,998,1022,1023,365
B,-4.446369777702065,11.579587030524248,-0.30537745488763457,0.6641924930523803,-0.0655362859253527,-0.13955042741055945,-0.9462890625,-0.1669921875,-0.098388671875,999,992,1021,1021,365
B,-4.44178608881936,11.635377064948388,-0.3014432777210568,1.0458718823653572,1.8810285995708305,0.669609877932952,-0.94482421875,-0.168701171875,-0.093994140625,1000,996,1022,1022,364
B,-4.450919953007719,11.67385448377363,-0.2984117528656973,-0.3434410947338793,0.15583775987617401,0.44060224434516576,-0.942626953125,-0.158447265625,-0.100830078125,1002,994,1022,1022,365
B,-4.455528993083394,11.70489143670479,-0.2934842142116721,0.11457417244169321,-0.5922538431772612,0.5780068244978375,-0.94091796875,-0.170166015625,-0.100341796875,998,994,1022,1022,365
B,-4.4711974963191485,11.736827845144903,-0.30081227886151896,-0.7861891863369328,-0.4166813240932916,-0.6204664579449106,-0.9404296875,-0.158447265625,-0.0966796875,1003,1000,1023,1021,364
B,-4.484396786903056,11.770619457088687,-0.3068831012649004,-0.564815140535406,-0.24110880500932216,-0.48306187779223886,-0.944091796875,-0.158447265625,-0.109130859375,1000,995,1023,1023,365
B,-4.48234907107127,11.800650915082588,-0.3006449983863479,0.7252611953424566,-0.7067576599711543,0.6925106412917306,-0.9462890625,-0.163818359375,-0.096923828125,1003,995,1022,1023,363
B,-4.484563942553815,11.831466291867377,-0.30127948191170517,0.47335279839589167,-0.5693530798184825,0.03602209167340997,-0.945556640625,-0.173583984375,-0.082275390625,1000,996,1023,1023,365
B,-4.507268035101678,11.86556682924062,-0.3101285366600855,-1.4579449115277725,-0.1876736905055054,-0.7502374503113227,-0.95556640625,-0.161376953125,-0.084228515625,1000,995,1023,1023,362
B,-4.502196255870604,11.904907172282057,-0.3053529252997299,1.0916734090829145,0.23980722552502898,0.6314419390016544,-0.94921875,-0.174560546875,-0.08203125,1001,995,1021,1023,365
B,-4.507023549732739,11.959466612032418,-0.3070978977767403,0.2214444014493268,1.8046927217082351,0.11235796953600541,-0.944091796875,-0.169189453125,-0.0927734375,994,995,1021,1021,366
B,-4.503572867922407,12.003047633224359,-0.30195900871280884,0.9161008899989451,0.6596545537693037,0.7001442290779901,-0.941650390625,-0.171630859375,-0.086669921875,999,997,1021,1023,363
B,-4.519809505577008,12.034216128989119,-0.30880274406977076,-0.847257888627009,-0.493017201955887,-0.5746649312273533,-0.933349609375,-0.15869140625,-0.078857421875,995,993,1021,1023,362
B,-4.526770005538963,12.068185367904047,-0.31378664233771597,0.053505470151616885,-0.22584162943680308,-0.36855806099834565,-0.940185546875,-0.16259765625,-0.08837890625,1001,996,1023,1021,364
B,-4.538754115304916,12.105963198244991,-0.3227799826575996,-0.3587082703063984,0.18637211102121218,-0.7273366869525442,-0.94189453125,-0.164794921875,-0.081787109375,999,992,1023,1022,364
B,-4.534793248174399,12.137512748294201,-0.321404394882797,1.0535054701516169,-0.5082843775284062,0.24212896190241762,-0.950439453125,-0.175048828125,-0.10302734375,996,991,1021,1023,364
B,-4.575920724483909,12.160544941665561,-0.33706811849694107,-3.190769339008688,-1.2411088050093222,-1.5059626411510176,-0.953369140625,-0.150146484375,-0.095947265625,998,995,1021,1021,363
B,-4.556900115276365,12.20557367597268,-0.3300390668115347,2.465719210609632,0.7970591339219755,0.9062510993069978,-0.94482421875,-0.181640625,-0.087158203125,995,995,1023,1023,364
B,-4.568315077925584,12.241955935798423,-0.34199808242428587,-0.23657086572624575,0.07186829422731905,-1.0250466106166662,-0.95068359375,-0.166015625,-0.09375,995,993,1022,1022,362
B,-4.569375620792895,12.296424921115975,-0.34436526406430945,0.6183909663348229,1.8046927217082351,0.05892285503218864,-0.937744140625,-0.169677734375,-0.096435546875,1000,996,1021,1022,365
C,-4.583684896185933,12.335298569846731,-0.33703636817817884,-0.07661730045379417,0.4391599535652725,1.0842860660639537,-0.82763671875,-0.367431640625,0.146240234375,569,968,844,790,356
C,-4.604093293448808,12.376897861524307,-0.3371023430502027,-0.5498997432018857,0.7597706405881732,0.3819959897280758,-0.8359375,-0.364990234375,0.159912109375,566,970,844,790,356
C,-4.615204746970587,12.423097955073722,-0.3355218522376215,0.40429873008055695,1.233053083336265,0.595736447743343,-0.83203125,-0.380126953125,0.170166015625,564,968,842,791,356
C,-4.640274403866155,12.462414278420848,-0.3249294612879994,-1.1834875294614278,0.47732789249657026,1.4201639286593735,-0.828125,-0.379150390625,0.1650390625,566,965,842,788,354
C,-4.661026156388965,12.508622753450146,-0.3146180783592454,-0.8018081401484507,1.1414500299011503,1.4354311042318926,-0.8330078125,-0.36572265625,0.16357421875,564,968,842,789,355
C,-4.668593870980456,12.552228561614134,-0.30818903763283834,0.6333063636683433,0.9277095718858832,1.0461181271326558,-0.830810546875,-0.37451171875,0.1455078125,567,963,843,788,357
C,-4.668247154146175,12.601090136051498,-0.31192715456341935,1.6409399514546028,1.530763007000387,0.09955324163647261,-0.836181640625,-0.37548828125,0.152099609375,564,969,844,790,353
C,-4.694660115562188,12.638431416967737,-0.3094146338746433,-1.1911211172476872,0.3246561367713794,0.611003623315862,-0.8349609375,-0.369140625,0.1640625,564,967,836,791,356
C,-4.712355981969338,12.67101046130906,-0.31865439808748697,-0.09951806381257278,-0.07229042811411679,-0.5798360713406265,-0.833984375,-0.3583984375,0.1533203125,565,966,844,792,357
C,-4.72428814254255,12.706412981239671,-0.32347876798651004,0.4271994934393356,0.19488514440496718,-0.11418721637879448,-0.8310546875,-0.370361328125,0.15185546875,564,968,841,790,355
C,-4.738772654945085,12.744646203370793,-0.3249654061885428,0.10658880641643484,0.4544271291377916,0.23695782178914448,-0.830322265625,-0.3720703125,0.1650390625,561,969,841,788,354
C,-4.762303875984125,12.789653139351197,-0.32466188952401664,-0.847609666866008,1.110915678756112,0.4659654553769307,-0.834228515625,-0.37109375,0.161376953125,559,964,833,792,354
C,-4.788675820000093,12.829000279080109,-0.32100602891812025,-1.1987547050339469,0.5231294192141275,0.7484082034685338,-0.83544921875,-0.3740234375,0.148193359375,562,965,843,791,356
C,-4.797530500217408,12.865814359689997,-0.3310934639386947,0.8470468216836105,0.37809125127519616,-0.6103704224856648,-0.82763671875,-0.3671875,0.157958984375,564,966,843,790,354
C,-4.812903505653444,12.911238572466823,-0.3381056724914775,0.1905582720652898,1.2406866711225244,-0.22105744538642802,-0.830322265625,-0.386474609375,0.160400390625,560,964,840,792,356
C,-4.838149217425453,12.957145153752,-0.3390134477629196,-0.9468463080873819,1.233053083336265,0.37436240194181625,-0.835205078125,-0.384521484375,0.171630859375,562,967,847,791,355
C,-4.861593309260853,13.008853836851573,-0.32660895504975673,-1.1224188271713513,1.6758011749393182,1.7026066767509764,-0.833251953125,-0.367919921875,0.147216796875,563,967,842,791,356
C,-4.872123749658941,13.058541447244526,-0.3249886104673205,0.3890315545080379,1.5536637703591656,0.6339043866746407,-0.833984375,-0.3623046875,0.12939453125,562,965,842,792,356
C,-4.881019086556307,13.092351533071621,-0.3272307046428334,0.6562071270271219,0.011679037534738174,0.13008759278151083,-0.835205078125,-0.3671875,0.151123046875,564,968,844,792,355
C,-4.913183787589476,13.12790261351664,-0.3263225316335421,-1.748373025644634,0.15671720547366946,0.4506982798044117,-0.838134765625,-0.36669921875,0.1552734375,564,963,844,789,355
C,-4.926175819573551,13.175190614083899,-0.32554366581615435,0.18292468427903025,1.3322897245576388,0.5423013332395261,-0.84033203125,-0.37109375,0.1435546875,561,963,841,793,357
C,-4.937174541638259,13.21911388407005,-0.327542779386412,0.44246666901185466,1.0193126253209979,0.24459140957540404,-0.828857421875,-0.365234375,0.1376953125,564,967,841,791,355
C,-4.956528579346192,13.251018800556695,-0.32657500651316074,-0.4430295141942522,-0.19442783269426944,0.4354311042318926,-0.83837890625,-0.37451171875,0.144287109375,562,965,844,791,358
C,-4.9749959558565635,13.292207495707567,-0.3330365372364746,-0.19112111724768732,0.7903049917332114,-0.2057902698139089,-0.833251953125,-0.3701171875,0.148681640625,564,968,843,791,356
C,-4.992449094206891,13.327705229325916,-0.33945777295478535,-0.06898371266753461,0.23305308333626487,-0.24395820874520657,-0.831298828125,-0.37548828125,0.14111328125,562,965,841,790,357
C,-5.0067679746490334,13.362486058491347,-0.3425195626228617,0.16765750870651117,0.13381644211489085,0.07665247827769406,-0.835693359375,-0.377685546875,0.138916015625,559,965,845,791,357
C,-5.01847118916806,13.399905763855475,-0.3487510038488688,0.4501002567981142,0.4009920146339748,-0.22105744538642802,-0.8427734375,-0.365478515625,0.158935546875,562,966,842,793,355
C,-5.0373716145531136,13.44267328502013,-0.3568424212396739,-0.19112111724768732,0.9658775108171809,-0.3431948499665807,-0.8349609375,-0.371826171875,0.168212890625,559,967,846,793,356
C,-5.048329982330166,13.487349916167833,-0.36444225134135366,0.602772012523305,1.1567172054736694,-0.2744925598902448,-0.82763671875,-0.3720703125,0.139892578125,563,964,843,797,356
C,-5.059193335880533,13.526389596451272,-0.36946594390016135,0.5417033102332287,0.5689309459316847,-0.07601927744749681,-0.834228515625,-0.371826171875,0.147216796875,560,967,846,796,357
C,-5.070662251062431,13.564646148685766,-0.37548753291119913,0.48826819572941194,0.4925950680690893,-0.18288950645513036,-0.833740234375,-0.366943359375,0.146240234375,560,967,844,798,358
C,-5.0867529438736865,13.601998512205219,-0.37393553263736645,-0.130052414957611,0.347556900130158,0.5499349210257857,-0.83056640625,-0.37158203125,0.1494140625,556,963,842,797,356
C,-5.096931073340352,13.634369262382217,-0.3796036364499957,0.6104056003095646,-0.0951911914728954,-0.19815668202764947,-0.833984375,-0.3671875,0.154052734375,557,963,844,798,356
C,-5.116894479331714,13.670809480574707,-0.38721728830820734,-0.3285256974003591,0.3246561367713794,-0.35082843775284034,-0.8310546875,-0.364013671875,0.1572265625,560,967,843,797,357
C,-5.148493646762441,13.714313610624941,-0.3863331092622247,-1.6186020332782216,0.9887782741759595,0.5575685088120452,-0.833984375,-0.38671875,0.153076171875,555,967,844,800,359
C,-5.167022572948007,13.738678284874759,-0.3905041140555566,-0.2598234073240232,-0.9043514968164068,-0.12182080416505392,-0.837890625,-0.369140625,0.141845703125,556,964,843,795,356
C,-5.1623829754793435,13.767722701667244,-0.4027168972576983,2.259260562141626,-0.3623667639919794,-0.8546452316459698,-0.8310546875,-0.368896484375,0.1591796875,558,968,846,797,357
C,-5.180146303559203,13.800368540856384,-0.40674720643933754,-0.15295317831638955,-0.06465684032785723,-0.022584162943680042,-0.829345703125,-0.37451171875,0.159423828125,558,964,844,798,357
C,-5.195042672093127,13.826925230264518,-0.4165503246574602,0.25162697435536613,-0.6295423365110634,-0.6409047736307028,-0.835205078125,-0.371826171875,0.13916015625,557,963,843,795,356
C,-5.222078445777831,13.863596029509347,-0.4277242226355049,-0.9239455447286034,0.39335842684771527,-0.6790727125620006,-0.836669921875,-0.37353515625,0.1650390625,556,966,843,798,357
C,-5.221612018731369,13.905184260759945,-0.42563504675416425,1.5111689590881905,0.7674042283744328,0.6491715622471598,-0.830810546875,-0.371826171875,0.153564453125,556,963,845,795,356
C,-5.247374559608122,13.942624708156925,-0.422426249023346,-1.0995180638125728,0.3628240757026771,0.7331410278960147,-0.83203125,-0.3837890625,0.150146484375,555,962,844,800,359
C,-5.280473621408345,13.980139331431044,-0.41882709312538713,-1.9010447813698246,0.3399233123438985,0.7560417912547933,-0.832763671875,-0.367919921875,0.126708984375,558,964,844,800,360
C,-5.27699660004047,14.016627816188944,-0.418199591338444,1.8241460583248317,0.26358743448130306,0.45833186759067124,-0.824462890625,-0.362548828125,0.1611328125,555,961,841,797,356
C,-5.305469838292146,14.054622098370178,-0.4153306400745505,-1.3590600485453972,0.42389277799275343,0.7102402645372361,-0.829345703125,-0.3837890625,0.15283203125,557,964,844,800,358
C,-5.3333602092554315,14.094505897327977,-0.4169109588833406,-1.2750905828965422,0.614732472649242,0.27512576072044215,-0.838134765625,-0.364501953125,0.14013671875,557,963,845,798,358
C,-5.3453235978227065,14.147278742764074,-0.45031743495240706,1.1142223942026943,2.1948851444049673,-2.671439124775741,-0.829345703125,-0.3662109375,0.14794921875,555,964,842,797,360
C,-5.366850647564573,14.167230702696726,-0.45794147208102703,-0.4277623386217331,-1.2860308861293839,-0.472965842332993,-0.835205078125,-0.381591796875,0.12890625,554,967,840,798,357
C,-5.384958525479318,14.198087316714139,-0.4617044073007067,-0.1605867661026491,-0.22496218383930766,0.007950188201358177,-0.825927734375,-0.38232421875,0.160888671875,555,966,842,796,357
C,-5.4146500249977825,14.24034122863815,-0.4680268090298527,-1.2521898195377636,0.9353431596721428,-0.12945439195131359,-0.814453125,-0.378173828125,0.15673828125,553,965,842,797,355
C,-5.449780912814152,14.270929828920764,-0.4671762331342879,-2.061350124881275,-0.3318324128469412,0.427797516445633,-0.83251953125,-0.361572265625,0.142333984375,555,965,844,800,357
C,-5.4648091737558255,14.289128770939493,-0.4836289633794529,0.40429873008055695,-1.3929011151370176,-1.3508284377528403,-0.8349609375,-0.370849609375,0.140380859375,553,961,844,798,355
C,-5.482585378153396,14.336135568858424,-0.4964975952207699,0.0836880430576562,1.4620607169240512,-0.7172406514932983,-0.82958984375,-0.380126953125,0.15869140625,556,964,841,797,357
C,-5.503119779133218,14.385608045212935,-0.5013480006741576,-0.38196081190417586,1.6376332360080206,0.08428606606395372,-0.840576171875,-0.3876953125,0.154296875,553,965,842,797,358
C,-5.525080038979664,14.432121369091973,-0.5018291848901157,-0.7025714989270766,1.2712210222675626,0.45833186759067124,-0.84130859375,-0.3681640625,0.142578125,554,964,842,797,359
C,-5.539792865641957,14.467962306520969,-0.5004616029366359,-0.00028142259119873225,0.2025187321912267,0.5423013332395261,-0.831787109375,-0.370849609375,0.1357421875,555,962,835,795,357
C,-5.558860755497078,14.499472091113814,-0.4970803226652195,-0.4888310409118094,-0.24786294719808621,0.694973088964717,-0.84375,-0.375244140625,0.152587890625,553,966,842,798,358
C,-5.574010450726501,14.536763906913624,-0.49058684549192183,-0.16822035388890866,0.3017553734126008,1.0537517149189155,-0.831298828125,-0.371826171875,0.14599609375,553,966,841,798,358
C,-5.582638123704886,14.564164965451228,-0.4975914199029073,0.7936117071797937,-0.5684736342209871,-0.35082843775284034,-0.825439453125,-0.361083984375,0.1416015625,554,963,841,795,356
C,-5.611843485688049,14.591523609938228,-0.5090671304590882,-1.0689837126675346,-0.49213775635839163,-0.755408590424596,-0.813720703125,-0.37890625,0.150146484375,552,965,843,797,357
C,-5.623386400890918,14.620636042264756,-0.517641980388577,0.602772012523305,-0.35473317620571987,-0.4653322545467333,-0.82421875,-0.377685546875,0.146240234375,554,963,842,797,358
C,-5.651102195468023,14.662950714494732,-0.5207634985840116,-1.1758539416751683,0.897175220740845,0.1835227072853276,-0.83349609375,-0.375,0.153564453125,554,965,842,797,360
C,-5.67027034813981,14.70607169755508,-0.5179487839714874,-0.4735638653392904,0.9200759840996237,0.7636753790410529,-0.828369140625,-0.372314453125,0.142333984375,553,963,842,798,359
C,-5.690506232889284,14.750866017167775,-0.5144009538019538,-0.5651669187744048,1.0956485031835932,0.862912020262427,-0.822998046875,-0.379638671875,0.142822265625,554,963,843,799,359
C,-5.706448166407188,14.799141752932913,-0.5083056266083736,-0.22165546839272543,1.4086256024202344,1.1377211805677705,-0.826904296875,-0.37548828125,0.14794921875,550,961,840,797,359
C,-5.733862768292002,14.831567460497643,-0.5062000163116062,-1.2750905828965422,-0.13335913040419312,0.595736447743343,-0.8251953125,-0.37255859375,0.148681640625,555,963,843,799,358
C,-5.742725447128764,14.863539781405484,-0.5118562700514904,0.7630773560347555,-0.11045836704541451,-0.1599887430963518,-0.828369140625,-0.36962890625,0.143798828125,554,962,841,796,357
C,-5.7691036911825,14.89567447560086,-0.516989507001687,-0.9773806592324201,-0.0875576036866359,-0.09892004080627537,-0.833251953125,-0.378662109375,0.153564453125,553,961,844,799,356
C,-5.789977598067584,14.922846758987733,-0.5244730537760242,-0.3895943996904354,-0.5684736342209871,-0.38136278889787834,-0.83935546875,-0.374755859375,0.155517578125,554,966,840,797,359
C,-5.802624802516276,14.955347383329833,-0.5241753349988528,0.20582544763780888,-0.12572554261793362,0.4125303408731139,-0.843505859375,-0.368896484375,0.157470703125,552,961,842,798,357
C,-5.8170971293558615,14.987380591844687,-0.5275951680951253,0.17529109649277072,-0.11045836704541451,0.06901889049143461,-0.833984375,-0.380859375,0.148681640625,548,968,843,797,359
C,-5.838924001537936,15.018938516659624,-0.5299937567830141,-0.595701269919443,-0.17152706933549083,0.16062194392654905,-0.8408203125,-0.38134765625,0.14990234375,548,961,844,798,357
C,-5.851738858498862,15.04816747935438,-0.5323970229750862,0.2592605621416257,-0.42343546628205575,0.12245400499525139,-0.823486328125,-0.3603515625,0.153564453125,548,965,841,801,358
C,-5.869215442789511,15.079150679944874,-0.5305551756797913,-0.2903577584690613,-0.27839729834312443,0.5575685088120452,-0.827392578125,-0.36962890625,0.155029296875,551,965,843,802,359
C,-5.886574996415544,15.101814282723652,-0.5263928532113307,-0.36669363633165675,-1.1409927181904527,0.6873395011784574,-0.841552734375,-0.3681640625,0.15576171875,552,961,841,803,360
C,-5.914544483108064,15.129167212984981,-0.5341578020583765,-1.0766173004537942,-0.5379392830759488,-0.39662996447039744,-0.82666015625,-0.373046875,0.153564453125,550,962,840,801,360
C,-5.935913854307343,15.165954076454314,-0.5402714371335366,-0.4735638653392904,0.37809125127519616,-0.1447215675238327,-0.83642578125,-0.37353515625,0.150146484375,550,958,842,801,360
C,-5.951261202364292,15.197445952527339,-0.5413025406223169,0.022619340767579876,-0.18679424490800994,0.2980265240792208,-0.834716796875,-0.380615234375,0.14404296875,547,962,840,801,359
C,-5.9699311987346375,15.22808223819659,-0.5446813967080429,-0.28272417068280176,-0.2631301227706053,0.053751714918915505,-0.8330078125,-0.36962890625,0.1640625,552,960,842,802,357
C,-5.984767748034028,15.267905964977732,-0.5510173146117611,0.16765750870651117,0.6758011749393182,-0.13708797973757303,-0.843017578125,-0.37109375,0.1591796875,550,960,839,801,359
C,-6.001120330488389,15.309887625496485,-0.5577648209701425,0.09895521863017531,0.9277095718858832,-0.12945439195131359,-0.82421875,-0.38330078125,0.149169921875,548,960,839,802,361
C,-6.018959257403106,15.346166181717775,-0.5583562482428486,-0.20638829282020643,0.3017553734126008,0.40489675308685436,-0.81298828125,-0.379638671875,0.1513671875,545,955,833,800,360
C,-6.036032416906544,15.383347373714265,-0.5576738337121477,-0.26745699511028276,0.33228972455763894,0.5041333943082285,-0.8349609375,-0.360107421875,0.1650390625,548,962,840,804,360
C,-6.050671856869529,15.433475887594486,-0.5644015216619892,0.19819185985154933,1.7063355260843565,-0.060752101874977704,-0.83984375,-0.36962890625,0.152587890625,547,962,840,801,362
C,-6.072528374068481,15.471058064802866,-0.563826161042391,-0.7331058500721148,0.37809125127519616,0.5041333943082285,-0.828369140625,-0.3603515625,0.146484375,550,962,842,803,360
C,-6.08120414111795,15.497923953426957,-0.5665779528420192,0.7096422415309387,-0.637175924297323,0.08428606606395372,-0.829833984375,-0.37109375,0.15087890625,547,958,841,804,360
C,-6.10567550162638,15.53480129518523,-0.5663918759990701,-0.9239455447286034,0.3399233123438985,0.4812326309494498,-0.8369140625,-0.38134765625,0.15283203125,549,958,842,803,362
C,-6.1213494106036554,15.575480627216665,-0.566207361362498,-0.05371653709501556,0.713969113870616,0.5194005698807476,-0.822265625,-0.3720703125,0.1474609375,550,961,839,800,359
C,-6.126035307599948,15.615046864695918,-0.5762708880803004,1.2974285010729234,0.698701938298097,-0.48059943011925244,-0.829345703125,-0.36865234375,0.15234375,546,963,837,800,362
C,-6.149229460420447,15.652051581681826,-0.591180123857624,-0.4430295141942522,0.48496148028282976,-0.9767826362261227,-0.83056640625,-0.363525390625,0.140625,548,962,841,803,359
C,-6.172217302425957,15.681520245160542,-0.586809203109218,-0.7483026699968339,-0.3698244626587399,0.8543286312308722,-0.81591796875,-0.412841796875,0.149169921875,569,959,870,897,367
C,-6.179598174552402,15.719240191202354,-0.5808740282650902,0.7631477116825555,0.431702254898512,1.090969852604918,-0.81884765625,-0.411865234375,0.1650390625,573,960,868,896,364
C,-6.1875484125834,15.759894295976357,-0.5701872480855529,0.5799416048123265,0.6759770640588174,1.5795194709255287,-0.817138671875,-0.412109375,0.159423828125,574,962,868,893,365
C,-6.201927283763357,15.801983382082481,-0.5686093063315452,0.18299503992683025,0.9126182854328632,0.7245576388644601,-0.81103515625,-0.4091796875,0.145263671875,575,962,876,896,366
C,-6.228366660948892,15.84113057862375,-0.5794258054034713,-0.7254019066380551,0.7294121785626342,-0.5044499947233263,-0.806640625,-0.395263671875,0.143310546875,573,959,869,895,367
C,-6.221076893251703,15.848049644651478,-0.5759609816589732,2.320399620079502,-2.5911985084602667,0.5337179442079715,-0.812744140625,-0.416748046875,0.1474609375,572,960,868,892,365
C,-6.232207128796643,15.877833972256788,-0.5922797688460003,1.0913919864917156,-0.07211453899461777,-1.0846026664790513,-0.81005859375,-0.436767578125,0.1650390625,572,959,868,895,366
C,-6.27347489165681,15.938320708796457,-0.5930161545642697,-2.442959158546452,2.7675801174939316,0.709290463291941,-0.804443359375,-0.405517578125,0.15966796875,573,960,867,895,366
