label,roll,pitch,yaw,gx,gy,gz,ax,ay,az,flex0,flex1,flex2,flex3,flex4,index_inside,middle_fingerprint,middle_inside_to_ring,ring_tape 
A,-0.0006408607627094929,0.027890489815843713,0.0045145159140699016,1.1649625323902235,-0.787134953428111,0.45146718957910137,-0.886474609375,-0.3046875,0.053955078125,758,1019,1023,1023,1021,1,0,0,0
A,-0.0035913661536498185,0.051018152781715384,-0.0005189425283077692,0.874886196512361,-1.2833181595349812,-0.5027312837033413,-0.90380859375,-0.2939453125,0.052734375,761,1022,1016,1023,1023,1,0,0,0
A,-0.028812661706811137,0.07611184597967321,-0.0033480330690920284,-1.323587085930387,-1.0772112893059735,-0.28135723790181455,-0.889404296875,-0.297119140625,0.052978515625,759,1019,1023,1023,1023,1,0,0,0
A,-0.03213931865820007,0.13676376050846903,0.0056392424795459846,0.9359548988024373,2.5029413824497513,0.9018488689684143,-0.879638671875,-0.313720703125,0.057373046875,753,1023,1023,1021,1022,1,0,0,0
A,-0.04152699575125303,0.14891543387576348,0.0009781923612406222,0.2260312346802999,-2.3825548007563553,-0.46456334477204364,-0.89306640625,-0.288818359375,0.04052734375,751,1021,1023,1023,1023,1,0,0,0
A,-0.0635888204343482,0.18412056546946193,-0.00439158871002724,-1.0182435744800054,-0.0695777015197141,-0.5332656348483795,-0.890380859375,-0.294189453125,0.037353515625,745,1021,1023,1021,1022,1,0,0,0
A,-0.04779262911677758,0.2218175476489317,-0.004186989158324091,2.775649555290987,0.18233069542685076,0.023986273548566972,-0.894775390625,-0.29833984375,0.0556640625,753,1023,1021,1023,1021,1,0,0,0
A,-0.07814841303769665,0.23390210120864358,-0.007869437615594069,-1.8503046431822956,-2.3825548007563553,-0.36532670355066954,-0.893310546875,-0.29443359375,0.050048828125,759,1023,1023,1022,1019,1,0,0,0
A,-0.08855110267747804,0.26525367227608626,0.002780666710047355,0.2031304713215213,-0.4359899152601721,1.0697878002661243,-0.884033203125,-0.30908203125,0.0439453125,753,1018,1023,1019,1016,1,0,0,0
A,-0.08839851708864163,0.29788275828769123,0.011370206109954017,1.1496953568177046,-0.3443868618250576,0.8636809300371167,-0.899169921875,-0.283935546875,0.053955078125,756,1023,1020,1023,1022,1,0,0,0
A,-0.10715191483558707,0.313420287944859,0.005778937468383566,-0.7434344141746618,-2.054310525947195,-0.5561663982071581,-0.90771484375,-0.283935546875,0.047607421875,757,1023,1022,1023,1019,1,0,0,0
A,-0.11859723696266168,0.33758200821690165,0.00253600890339924,0.08099306674136864,-1.1611807549548288,-0.31952517683311243,-0.88232421875,-0.3017578125,0.04638671875,750,1021,1021,1021,1023,1,0,0,0
A,-0.12127736671012807,0.37665063110047287,0.004528362401587042,0.9512220743749564,0.32736886336578197,0.20719238041879606,-0.9013671875,-0.307373046875,0.060791015625,756,1021,1023,1023,1023,1,0,0,0
A,-0.14807520420612097,0.39012235290098474,-0.0005320592666418834,-1.4991596050143567,-2.2451502206036835,-0.5027312837033413,-0.894287109375,-0.29296875,0.058837890625,756,1023,1022,1021,1023,1,0,0,0
A,-0.1738726966743211,0.41201437213517106,0.0037743685311282323,-1.3159534981441277,-1.3749212129700958,0.43620001400658226,-0.8857421875,-0.31494140625,0.060302734375,744,1022,1023,1021,1023,1,0,0,0
A,-0.20026053026931362,0.4574595041605881,0.01045613308110054,-1.476258841655578,0.9456894740528049,0.6804748231668876,-0.893310546875,-0.2900390625,0.052734375,751,1022,1023,1023,1021,1,0,0,0
A,-0.2025259308892278,0.4811464439607751,0.012702482809908107,0.9817564255199945,-1.2146158694586453,0.23009314377757462,-0.90478515625,-0.3056640625,0.0458984375,757,1023,1023,1021,1021,1,0,0,0
A,-0.21069536817641574,0.5143161869030259,0.01796706157920127,0.34053505147419305,-0.2833181595349813,0.5354366552279564,-0.888916015625,-0.287109375,0.05419921875,753,1022,1023,1022,1022,1,0,0,0
A,-0.2248224019372889,0.5493095019614896,0.01671902709954261,-0.16328174241893678,-0.0695777015197141,-0.11341830660410479,-0.89208984375,-0.31201171875,0.0615234375,754,1022,1021,1023,1022,1,0,0,0
A,-0.2448011172258726,0.5736272444811633,0.014826300437480852,-0.8197702920372574,-1.1611807549548288,-0.18212059668044067,-0.88525390625,-0.289794921875,0.05615234375,755,1022,1021,1022,1022,1,0,0,0
A,-0.26582186087654375,0.5961513367621948,0.019956202344600323,-0.8655718187548147,-1.3214860984662788,0.5201694796554373,-0.89453125,-0.31103515625,0.0390625,760,1022,1021,1022,1022,1,0,0,0
A,-0.26820806581421774,0.6406728872011538,0.0316363408082134,0.9283213110161778,0.8540864206176905,1.1842916170600173,-0.8876953125,-0.29150390625,0.039794921875,758,1022,1022,1021,1023,1,0,0,0
A,-0.29903987904826274,0.6610704980015504,0.034027024405380246,-1.9190069332586315,-1.5581273198403247,0.24536031935009373,-0.9013671875,-0.29248046875,0.04052734375,757,1023,1022,1021,1022,1,0,0,0
A,-0.294472688008187,0.6806260466960511,0.03894817197209716,1.6458785629245747,-1.6344631977029203,0.49726871629665864,-0.88671875,-0.29541015625,0.04296875,749,1021,1021,1022,1021,1,0,0,0
A,-0.30721386999903244,0.6962930373147427,0.04335046946160225,-0.1098466279151199,-2.0314097625884164,0.4438336017928418,-0.89599609375,-0.29150390625,0.05615234375,751,1023,1021,1023,1021,1,0,0,0
A,-0.3257175451855722,0.705524800839648,0.04030803266727665,-0.6823657118845856,-2.672631136634218,-0.3042580012605933,-0.89892578125,-0.291015625,0.06103515625,756,1022,1023,1022,1023,1,0,0,0
A,-0.33594661569332385,0.7505198839387779,0.038737535529717426,0.2031304713215213,0.9227887106940263,-0.13631906996288334,-0.878173828125,-0.300537109375,0.05078125,752,1023,1022,1023,1023,1,0,0,0
A,-0.35076838467601146,0.7699371194784567,0.036165579026138546,-0.2777855592128299,-1.64209678548918,-0.25082288675677655,-0.9013671875,-0.302001953125,0.047119140625,756,1023,1023,1022,1021,1,0,0,0
A,-0.36878859675643977,0.7837260322169222,0.029962604941404576,-0.5831290706632115,-2.1993486938861264,-0.6172351004972345,-0.88623046875,-0.299560546875,0.050537109375,753,1023,1022,1021,1022,1,0,0,0
A,-0.36761486893168654,0.8153091721464876,0.037313578543670435,1.340535051474193,-0.42072273968765306,0.7491771132432234,-0.893310546875,-0.308349609375,0.04833984375,763,1022,1022,1021,1023,1,0,0,0
A,-0.3856892079392581,0.831824039409115,0.04369264163639593,-0.644197772953288,-1.9474402969395617,0.6423068842355899,-0.895751953125,-0.292236328125,0.048828125,756,1023,1023,1023,1023,1,0,0,0
A,-0.41013294548947116,0.859597005701038,0.04815400313416021,-1.224350444709013,-0.8024021290006301,0.4591007773653609,-0.893798828125,-0.306640625,0.057861328125,751,1021,1021,1015,1022,1,0,0,0
A,-0.4216610831773705,0.8904453747075812,0.059623872934723085,0.01992436445129231,-0.5123257931227676,1.1613908537012387,-0.892578125,-0.296142578125,0.049560546875,753,1021,1023,1023,1023,1,0,0,0
A,-0.4350971501156952,0.8996364358222697,0.06057101287638894,-0.209083269136494,-2.687898312206737,0.09268856362490285,-0.9033203125,-0.28466796875,0.046142578125,757,1023,1023,1023,1023,1,0,0,0
A,-0.4511705688559177,0.9150419489297306,0.05696070620633551,-0.41519013936550153,-2.0466769381609353,-0.3576931157644101,-0.87646484375,-0.289794921875,0.055908203125,756,1023,1022,1023,1023,1,0,0,0
A,-0.4703174054806705,0.9329180179484884,0.05714570785982606,-0.7052664752433642,-1.7947685412143706,0.023986273548566972,-0.8837890625,-0.298583984375,0.04931640625,760,1022,1022,1023,1021,1,0,0,0
A,-0.4669323096755953,0.9561540801344619,0.06180035536427616,1.523741158344422,-1.2680509839624623,0.47436795293788003,-0.89453125,-0.297607421875,0.066162109375,753,1021,1023,1022,1023,1,0,0,0
A,-0.5060725833110775,0.9801313425902077,0.05933624337350631,-2.7281672386021425,-1.1917151060998668,-0.23555571118425744,-0.88330078125,-0.290771484375,0.05029296875,761,1022,1022,1023,1023,1,0,0,0
A,-0.5451399108094089,1.0160390283761385,0.06424095595082785,-2.6976328874571047,0.006758176342881339,0.5125358918691777,-0.880126953125,-0.299560546875,0.050048828125,750,1022,1019,1022,1021,1,0,0,0
A,-0.5107396137305735,1.0186414251203633,0.06795478029135278,4.584809860634499,-3.3443868618250576,0.3598641361439868,-0.900390625,-0.2880859375,0.056884765625,751,1023,1022,1021,1021,1,0,0,0
A,-0.5484464176156068,1.0177446205982317,0.06572774068101328,-2.6365641851670283,-3.6955318999929965,-0.23555571118425744,-0.875,-0.2744140625,0.095458984375,757,1021,1023,1023,1023,1,0,0,0
A,-0.5631804828587491,1.0396367706700496,0.05977232171809619,-0.23961762028153222,-1.3825548007563553,-0.5867007493521963,-0.885498046875,-0.302978515625,0.066650390625,751,1022,1021,1022,1023,1,0,0,0
A,-0.5538406146456428,1.0663547461053944,0.07028072761802148,2.0657258911688494,-0.9398067091533019,1.0621542124798646,-0.88671875,-0.28369140625,0.068359375,751,1023,1022,1023,1021,1,0,0,0
A,-0.5812808673264526,1.1011690988473326,0.0666440112688739,-1.5831290706632115,-0.11537922823727143,-0.342425940191891,-0.88818359375,-0.284912109375,0.057373046875,763,1023,1022,1023,1022,1,0,0,0
A,-0.6079037418138594,1.1349433169857361,0.05887802510821241,-1.4457244905105398,-0.1993486938861263,-0.7546396806499063,-0.888916015625,-0.298095703125,0.045654296875,749,1022,1021,1021,1023,1,0,0,0
A,-0.6004729142345793,1.1519513967484127,0.06457599843066752,1.9435884865886968,-1.8863715946494852,0.573604594159254,-0.89697265625,-0.3037109375,0.04296875,757,1023,1023,1023,1021,1,0,0,0
A,-0.6142391083954656,1.1677995267293508,0.07112615873620616,-0.21671685692275355,-2.0161425870158975,0.657574059808109,-0.890869140625,-0.291015625,0.05322265625,750,1021,1021,1021,1023,1,0,0,0
A,-0.6321137895982915,1.1909531517022016,0.07041333728175794,-0.5831290706632115,-1.2680509839624623,-0.05998319210028802,-0.8896484375,-0.298828125,0.06298828125,751,1022,1023,1023,1022,1,0,0,0
A,-0.6395910185115576,1.2176095842755759,0.0788995241550663,0.4474052804818266,-0.9245395335807828,0.8636809300371167,-0.885009765625,-0.300048828125,0.06103515625,751,1023,1022,1023,1022,1,0,0,0
A,-0.6583888776370476,1.2399048766892553,0.082256884587389,-0.7587015897471809,-1.3825548007563553,0.3445969605714678,-0.8994140625,-0.281494140625,0.05322265625,750,1022,1021,1022,1021,1,0,0,0
A,-0.6720802804210295,1.2578274130799334,0.08557024184086666,-0.17091533020519634,-1.7947685412143706,0.33696337278520827,-0.885986328125,-0.29833984375,0.063232421875,752,1023,1021,1023,1023,1,0,0,0
A,-0.6926997814983368,1.2750009052910714,0.08500229539340405,-0.8732054065410741,-1.871104419076966,-0.05234960431402835,-0.883056640625,-0.29248046875,0.067626953125,750,1022,1022,1021,1021,1,0,0,0
A,-0.7016172643466717,1.2969011701347775,0.08719799244366419,0.32526787590167394,-1.3901883885426147,0.23009314377757462,-0.885009765625,-0.302490234375,0.04296875,750,1023,1023,1022,1023,1,0,0,0
A,-0.7343868886334473,1.3159151073836923,0.09461734602732716,-2.0793122767700813,-1.687898312206737,0.7491771132432234,-0.88134765625,-0.29931640625,0.063232421875,753,1022,1023,1022,1021,1,0,0,0
A,-0.7487818741223737,1.337161268618583,0.11163555333746383,-0.2548847958540512,-1.47415785419147,1.7110091743119258,-0.885986328125,-0.303466796875,0.05126953125,750,1022,1022,1023,1022,1,0,0,0
A,-0.7609576846060859,1.3565795514269128,0.11572321360868225,-0.10221304012886046,-1.672631136634218,0.4132992506478037,-0.8994140625,-0.28076171875,0.06787109375,747,1023,1022,1022,1022,1,0,0,0
A,-0.769917106994229,1.3831683291668195,0.11703194116665903,0.2641991736115976,-0.9398067091533019,0.14612367812871974,-0.893310546875,-0.289306640625,0.068603515625,753,1021,1019,1021,1021,1,0,0,0
A,-0.7843077240087818,1.4084197450766813,0.11644330556845925,-0.2701519714265703,-1.069577701519714,-0.04471601652776891,-0.88525390625,-0.287841796875,0.0673828125,755,1023,1023,1023,1021,0,0,0,0
A,-0.7998836906511344,1.442618953587003,0.11664506150312,-0.392289376006723,-0.17644793052734775,0.046887036907345636,-0.896484375,-0.291015625,0.062744140625,750,1021,1022,1023,1023,1,0,0,0
A,-0.8123233041449652,1.4621479750343025,0.11413437251144753,-0.033510750052524574,-1.6268296099166606,-0.2431892989705169,-0.875244140625,-0.29443359375,0.055908203125,750,1023,1023,1021,1023,0,0,0,0
A,0.02079186138431057,0.042937508875650135,-0.0007821805661991752,2.676623012816023,0.5597030604384057,-0.07899712865046571,-0.962890625,-0.154052734375,-0.137451171875,762,1023,1022,1021,1022,1,0,0,0
A,0.04421106109919474,0.09880617974600259,0.0005794163682012754,2.867462707472512,1.8421458085300086,0.13474332936480143,-0.95263671875,-0.1337890625,-0.115234375,762,1023,1023,1023,1023,1,0,0,0
A,0.028015438069097277,0.15063613919064844,-0.016933492776436302,-1.086735765809931,1.437565655858253,-1.7507528538413055,-0.95654296875,-0.13525390625,-0.107666015625,766,1023,1023,1022,1019,1,0,0,0
A,0.04696598109867849,0.19635737230189568,-0.018261297211258243,2.4705161425870155,0.8345122207437492,-0.1324322431542826,-0.946533203125,-0.145751953125,-0.1318359375,764,1021,1023,1021,1023,1,0,0,0
A,0.06023957848181642,0.25307797774413787,-0.019048397672070373,1.8979970586175499,1.9337488619651233,-0.07899712865046571,-0.943115234375,-0.14404296875,-0.1162109375,764,1023,1023,1023,1023,1,0,0,0
A,0.04869057918241805,0.3007308303241591,-0.030697214579381554,-0.5829189719168011,1.0253519154002377,-1.1629665942993208,-0.947998046875,-0.143798828125,-0.11474609375,760,1023,1021,1022,1023,1,0,0,0
A,0.040149947101314115,0.34815373586522447,-0.032274992640694965,-0.2928426360389387,1.0024511520414592,-0.15533300651306114,-0.955078125,-0.143310546875,-0.128173828125,761,1023,1023,1023,1017,1,0,0,0
A,0.06218295509610982,0.397746346602384,-0.029949655135702573,2.7376917151060995,1.2161916100567263,0.23397997058617548,-0.965576171875,-0.138427734375,-0.122802734375,758,1023,1022,1023,1023,1,0,0,0
A,0.04145763498461231,0.44204923232055743,-0.04550875447266511,-1.5523846207717629,0.6818404650185583,-1.5522795713985573,-0.953369140625,-0.129638671875,-0.096923828125,761,1021,1023,1021,1021,1,0,0,0
A,0.023832459513166638,0.482770055930214,-0.039859835701679766,-1.1707052314587858,0.33832901463687903,0.5698578331815953,-0.9599609375,-0.153564453125,-0.126708984375,756,1023,1023,1023,1023,1,0,0,0
A,0.05985345178475239,0.540969088367999,-0.029527565585229808,4.1880733944954125,2.0864206176903144,1.0355066881434274,-0.949951171875,-0.151611328125,-0.114013671875,763,1023,1021,1023,1023,1,0,0,0
A,0.048593699028756966,0.6005488721771071,-0.0380575044382157,-0.6210869108480987,2.208558022270467,-0.8499894950626795,-0.94921875,-0.1259765625,-0.122314453125,763,1019,1021,1023,1022,1,0,0,0
A,0.027858105278120694,0.6375172962497477,-0.05853821977598898,-1.4378808039778699,-0.03571678688983848,-2.040829189719168,-0.9423828125,-0.1552734375,-0.119873046875,757,1021,1023,1023,1023,1,0,0,0
A,0.0788705421982857,0.6897854846031962,-0.05637967820202251,5.6308214860984656,1.4833671825758104,0.21871279501365637,-0.95166015625,-0.135498046875,-0.118896484375,759,1023,1023,1022,1022,1,0,0,0
A,0.07308981152350541,0.7308223560792826,-0.06563040590428489,-0.01803347573359515,0.3612297779956576,-0.9186917851390154,-0.959716796875,-0.14111328125,-0.12451171875,757,1023,1022,1023,1023,1,0,0,0
A,0.06215371639969588,0.7638408751869458,-0.07970697181221564,-0.5218502696267251,-0.4402969395615943,-1.3996078156733667,-0.951416015625,-0.14111328125,-0.111328125,758,1023,1023,1023,1021,1,0,0,0
A,0.07322448796441532,0.8300819574298748,-0.07047070752558177,1.760592478464878,2.903214510820085,0.9286364591357938,-0.94287109375,-0.169189453125,-0.111083984375,760,1023,1022,1022,1023,1,0,0,0
A,0.0746082671483555,0.881851755409548,-0.07414046782031757,0.6537222494572446,1.4299320680719936,-0.3614398767420688,-0.951416015625,-0.1298828125,-0.12548828125,762,1023,1023,1021,1019,1,0,0,0
A,0.060390885831900755,0.9207807340379667,-0.08769601198801574,-0.819560193290847,0.15512290776665005,-1.3461727011695497,-0.9453125,-0.1474609375,-0.1337890625,757,1023,1023,1021,1022,1,0,0,0
A,0.09646949808719617,0.9733231089570406,-0.08183111258345367,4.195706982281672,1.521535121507108,0.592758596540374,-0.9599609375,-0.154052734375,-0.115478515625,759,1023,1023,1022,1023,1,0,0,0
A,0.08755020236217456,1.0173753610044125,-0.09117669456864419,-0.3539113383290151,0.6589397016597798,-0.9263253729252748,-0.953125,-0.13330078125,-0.122314453125,755,1023,1021,1023,1021,1,0,0,0
A,0.07480331659121092,1.0605025261694763,-0.10467183175733942,-0.6210869108480987,0.5826038237971843,-1.3385391133832902,-0.9404296875,-0.1591796875,-0.1064453125,758,1022,1021,1023,1021,1,0,0,0
A,0.09259754036138336,1.1002513870634782,-0.1027351594080394,2.3560123257931225,0.23909237341550493,0.20344561944113732,-0.957275390625,-0.149169921875,-0.119873046875,758,1021,1021,1019,1023,1,0,0,0
A,0.09861468729868803,1.1580547067461482,-0.10526609462572918,1.1117375166328172,2.0329855031864974,-0.2469360599481757,-0.95068359375,-0.128662109375,-0.124755859375,758,1019,1022,1022,1022,1,0,0,0
A,0.06989347092077552,1.208876793624947,-0.11830509412647335,-2.254674697107641,1.3459626024231386,-1.2927375866657331,-0.951904296875,-0.151123046875,-0.12060546875,756,1021,1021,1022,1022,1,0,0,0
A,0.08569788540142786,1.2523908677380122,-0.11418045384433813,2.22624133342671,0.6284053505147416,0.424819665242664,-0.93798828125,-0.16552734375,-0.12548828125,761,1021,1022,1023,1023,1,0,0,0
A,0.10534654326378212,1.307335389079502,-0.11062042976410291,2.478149730373275,1.7505427550948944,0.3637509629525877,-0.955322265625,-0.133544921875,-0.125244140625,759,1022,1022,1023,1022,1,0,0,0
A,0.07043901449884157,1.3422152339392326,-0.1268954150019,-2.918796834512221,-0.25709083269136523,-1.6133482736886338,-0.962646484375,-0.137939453125,-0.097412109375,756,1022,1023,1023,1022,1,0,0,0
A,0.07618796341300078,1.3982357853707001,-0.1321582453484978,1.2109741578541913,1.8726801596750469,-0.5141116324672595,-0.949951171875,-0.159423828125,-0.11279296875,761,1021,1021,1021,1023,1,0,0,0
A,0.09894477680393791,1.4562513579682526,-0.12160272325964576,2.8521955318999925,2.071153442117795,1.0660410392884656,-0.95166015625,-0.154296875,-0.111572265625,761,1023,1023,1019,1023,1,0,0,0
A,0.08126954742077903,1.509009074951543,-0.1281553604043545,-1.2394075215351217,1.5291687092933675,-0.6438826248336719,-0.949951171875,-0.13037109375,-0.14013671875,757,1023,1023,1021,1023,1,0,0,0
A,0.06792674005899578,1.5416167938844485,-0.1448369013571961,-0.7203235520694728,-0.478464878492892,-1.6515162126199314,-0.945556640625,-0.144775390625,-0.122314453125,758,1022,1023,1023,1023,1,0,0,0
A,0.08898338448566134,1.579752649073538,-0.14760978155005988,2.699523776174802,0.0787870299040545,-0.2622032355206948,-0.950927734375,-0.14990234375,-0.113037109375,758,1022,1022,1021,1021,1,0,0,0
A,0.08663933842529216,1.6231473899397613,-0.15526244158432012,0.3331115624343439,0.5978709993697034,-0.7507528538413054,-0.96044921875,-0.140869140625,-0.1142578125,762,1022,1023,1022,1019,1,0,0,0
A,0.06339672465371947,1.6666253974155143,-0.1689742039932949,-1.6897892009244346,0.6131381749422226,-1.3538062889558091,-0.951171875,-0.15234375,-0.115966796875,758,1021,1021,1023,1023,1,0,0,0
A,0.07239393856691731,1.719085010159484,-0.16398605007828795,1.5697527838083896,1.5291687092933675,0.5164227186777786,-0.94140625,-0.174072265625,-0.1025390625,759,1023,1023,1019,1022,1,0,0,0
A,0.0816234988565496,1.783015964875583,-0.1538216503006216,1.417081028083199,2.6513061138735203,1.027873100357168,-0.9541015625,-0.134521484375,-0.12060546875,758,1023,1019,1023,1022,1,0,0,0
A,0.056958181201633776,1.8309517285570607,-0.16920451127774783,-1.8958960711534423,1.0482526787590165,-1.521745220253519,-0.95458984375,-0.1337890625,-0.111083984375,761,1021,1023,1022,1022,1,0,0,0
A,0.06240537700227046,1.8838639120795422,-0.1703365673375665,1.195706982281672,1.5673366482246653,-0.09426430422298482,-0.948486328125,-0.165771484375,-0.13671875,758,1023,1023,1022,1023,1,0,0,0
A,0.08693419580017923,1.9397758775246636,-0.16531199109570532,2.9666993486938855,1.8497793963162683,0.5164227186777786,-0.9541015625,-0.135986328125,-0.124267578125,755,1021,1022,1019,1022,1,0,0,0
A,0.06824624506175628,1.973718563583414,-0.1825650614776334,-1.26994187268016,-0.34869388612647967,-1.7049513271237484,-0.94140625,-0.13671875,-0.129150390625,756,1022,1022,1022,1021,1,0,0,0
A,0.06620185864757902,2.019144609254736,-0.1890709311545871,0.4705161425870157,0.8192450451712301,-0.6286154492611528,-0.952392578125,-0.167724609375,-0.11669921875,760,1021,1021,1023,1021,1,0,0,0
A,0.08249864269528161,2.071037612353208,-0.18545304011033498,2.180439806709153,1.4528328314307721,0.3790181385251068,-0.95556640625,-0.144775390625,-0.099853515625,760,1022,1021,1023,1021,1,0,0,0
A,0.05605243915162218,2.125404138559573,-0.19338244081242892,-2.0638350024511523,1.6971076405910774,-0.773653617200084,-0.94580078125,-0.140380859375,-0.11669921875,763,1023,1023,1022,1023,1,0,0,0
A,0.01977770002875974,2.171710167199436,-0.20319600898837192,-2.9645983612297786,0.9032145108200851,-0.9568597240703131,-0.950927734375,-0.16064453125,-0.122314453125,755,1022,1023,1023,1023,1,0,0,0
A,0.06999781755837592,2.2132247131389815,-0.1910386852551895,5.5315848448770915,0.41466489249947447,1.2339799705861756,-0.9462890625,-0.1416015625,-0.139404296875,760,1023,1021,1023,1023,1,0,0,0
A,0.06861359091671668,2.250191685606551,-0.19958337459005954,0.3865466769381607,-0.05098396246235759,-0.8347223194901604,-0.952392578125,-0.125732421875,-0.118408203125,763,1019,1023,1023,1021,1,0,0,0
A,0.03752630788359738,2.2929783445638905,-0.21497211661920976,-2.460781567336648,0.5444358848658867,-1.5141116324672597,-0.958740234375,-0.151611328125,-0.115234375,758,1022,1023,1022,1021,1,0,0,0
A,0.08129909919416733,2.3438836905016243,-0.20285282034341764,4.974332936480145,1.3688633657819171,1.2339799705861756,-0.984130859375,-0.171630859375,-0.11328125,758,1021,1023,1023,1021,1,0,0,0
A,0.08782405834589935,2.39820985308874,-0.19213343273647432,1.1117375166328172,1.689474052804818,1.0889418026472442,-0.959716796875,-0.1298828125,-0.119140625,756,1023,1023,1022,1021,1,0,0,0
A,0.05087824556398158,2.4432701816251536,-0.20259251712771773,-3.0103998879473353,0.7810771062399324,-1.0179284263603896,-0.953125,-0.164794921875,-0.11083984375,759,1023,1022,1021,1023,1,0,0,0
A,0.06587580564888475,2.5004208947003157,-0.20260662543490973,2.0659359899152596,1.9795503886826804,0.02023951257090828,-0.960205078125,-0.146484375,-0.13232421875,758,1022,1023,1023,1021,1,0,0,0
A,0.08566364454061624,2.5546554021660017,-0.19979845004148605,2.5392184326633513,1.689474052804818,0.30268226066251136,-0.937744140625,-0.144775390625,-0.1201171875,762,1023,1015,1023,1022,1,0,0,0
A,0.0808208849562768,2.6067085973508815,-0.20769684752939307,0.11173751663281717,1.4681000070032912,-0.7660200294138245,-0.951416015625,-0.143798828125,-0.131591796875,751,1016,1023,1019,1017,1,0,0,0
A,0.08603181930866236,2.6562953575502535,-0.21598981721971028,1.1346382799915957,1.223825197842986,-0.8041879683451222,-0.95703125,-0.1484375,-0.11083984375,756,1023,1023,1023,1023,1,0,0,0
A,0.07887324763921505,2.7046363165687795,-0.21178482250767325,-0.10963652916870958,1.1093213810490927,0.4477204286014427,-0.947509765625,-0.16015625,-0.104248046875,759,1022,1023,1019,1023,1,0,0,0
A,0.11219559377318383,2.7703587675902024,-0.20133081729742636,3.867462707472512,2.8421458085300086,1.0660410392884656,-0.95947265625,-0.1513671875,-0.106689453125,758,1022,1021,1021,1023,1,0,0,0
A,0.10903309841391425,2.8259649765681822,-0.21358189651609566,0.27967644793052693,1.8192450451712303,-1.2011345332306185,-0.94775390625,-0.136962890625,-0.120361328125,760,1023,1019,1023,1023,1,0,0,0
A,0.13352654997898133,2.886992814939082,-0.20857851653807719,3.035401638770222,2.376496953568177,0.5240563064640381,-0.941162109375,-0.155517578125,-0.12548828125,760,1022,1022,1021,1021,1,0,0,0
A,0.1472692988291776,2.9428262977109383,-0.21386635427391246,1.928531409762588,1.8421458085300086,-0.5064780446810001,-0.95458984375,-0.1357421875,-0.12109375,759,1019,1022,1019,1023,1,0,0,0
A,0.1591069904464165,3.0018060594895437,-0.2037631931023313,1.7682260662511378,2.1780236711254286,1.0355066881434274,-0.94091796875,-0.162353515625,-0.122802734375,754,1017,1021,1015,1023,1,0,0,0
A,0.1590462894834651,3.052453278836041,-0.20741652968980046,0.5850199593809087,1.3306954268506195,-0.3385391133832901,-0.95556640625,-0.147705078125,-0.1240234375,755,1023,1022,1021,1023,1,0,0,0
A,0.15708592887767803,3.095952439750578,-0.20774499234234514,0.4018138525106798,0.6207717627284821,-0.002661250787870273,-0.94775390625,-0.15283203125,-0.1181640625,755,1022,1021,1021,1021,1,0,0,0
A,0.17627035524743104,3.137616010211818,-0.20787135922874428,2.56211919602213,0.4451992436445126,0.02023951257090828,-0.94384765625,-0.16455078125,-0.12158203125,753,1021,1023,1022,1023,1,0,0,0
A,0.18115296117323132,3.1815307243327378,-0.21063938756651066,1.081203165487779,0.6589397016597798,-0.2469360599481757,-0.953125,-0.14892578125,-0.119384765625,755,1023,1023,1019,1022,1,0,0,0
A,0.1594426317306963,3.2191701350230266,-0.22385366747686192,-1.4913159184816869,0.0329855031864974,-1.2851039988794732,-0.95361328125,-0.156494140625,-0.11865234375,756,1021,1023,1023,1022,1,0,0,0
A,0.17379759504171188,3.263808436067367,-0.21814049858723886,2.1193711044190766,0.7581763428811539,0.608025772112893,-0.92919921875,-0.181396484375,-0.139404296875,753,1021,1022,1022,1022,1,0,0,0
A,0.18859903292511587,3.295819172701748,-0.21865626635831592,2.0506688143427407,-0.5318999929967088,-0.017928426360389382,-0.9619140625,-0.147705078125,-0.124267578125,751,1022,1021,1022,1023,1,0,0,0
A,0.1744160873192991,3.343089957294847,-0.22717639319116156,-0.7813922543595493,0.9948175642551996,-0.8194551439176413,-0.94482421875,-0.150146484375,-0.1044921875,752,1022,1023,1021,1023,1,0,0,0
A,0.18297755613657485,3.395643495608062,-0.22814693354256968,1.5163176693045728,1.5368022970796271,-0.06372995307794671,-0.94384765625,-0.167724609375,-0.1201171875,754,1020,1023,1021,1021,1,0,0,0
A,0.2024292828010565,3.446584436989691,-0.23062926557318741,2.577386371594649,1.3688633657819171,-0.21640170880313747,-0.948974609375,-0.15869140625,-0.106689453125,749,1022,1022,1023,1023,1,0,0,0
A,0.1750039937311965,3.500866013412585,-0.24060390383908212,-2.086735765809931,1.6971076405910774,-0.9644933118565727,-0.946044921875,-0.15234375,-0.094482421875,755,1022,1023,1023,1021,1,0,0,0
A,0.17067708712301988,3.5501104505851813,-0.24449822873171598,0.2186077456404507,1.2009244344842072,-0.35380628895580923,-0.937744140625,-0.15966796875,-0.12158203125,752,1021,1023,1023,1022,1,0,0,0
A,0.19333022265036037,3.5930034439716083,-0.24029630262674584,2.8598291196862524,0.5673366482246652,0.45535401638770223,-0.946044921875,-0.1591796875,-0.111328125,753,1023,1021,1023,1021,1,0,0,0
A,0.21306084966185476,3.6426143843223606,-0.23936574084897796,2.5926535471671683,1.239092373415505,0.12710974157854193,-0.94873046875,-0.1611328125,-0.124267578125,755,1022,1021,1021,1021,1,0,0,0
A,0.2437828891678632,3.7005981426075665,-0.23350334929758806,3.661355837243504,2.0787870299040545,0.6156593598991525,-0.94384765625,-0.160400390625,-0.103515625,751,1022,1022,1022,1023,1,0,0,0
A,0.24630193654479515,3.7682573977092715,-0.23337664502058336,0.8063940051824354,3.0329855031864974,0.03550668814342739,-0.955322265625,-0.1435546875,-0.104248046875,755,1022,1023,1019,1020,1,0,0,0
A,0.2427404822877386,3.8407936135096215,-0.24228432863507982,0.2873100357167866,3.5215351215071085,-0.8652566706351986,-0.95751953125,-0.15185546875,-0.121826171875,754,1022,1023,1023,1021,1,0,0,0
A,0.2536447976331848,3.903424294423056,-0.24696737218247272,1.73005812731984,2.5368022970796273,-0.4377757546046642,-0.94677734375,-0.156494140625,-0.12744140625,752,1021,1023,1021,1022,1,0,0,0
A,0.24634463900036555,3.963080247250154,-0.25731356730775223,-0.08673576580993103,2.231458785629245,-1.0026612507878703,-0.95849609375,-0.14892578125,-0.123779296875,751,1021,1023,1023,1023,1,0,0,0
A,0.2558411688412687,3.998198472419417,-0.26214181131495184,1.6079207227396872,-0.2112893059738079,-0.4377757546046642,-0.957763671875,-0.162841796875,-0.128173828125,756,1019,1023,1022,1023,1,0,0,0
A,0.27236142864908924,4.052643557106468,-0.26703019083035756,2.3025772112893055,1.7200084039498562,-0.45304293017718333,-0.952880859375,-0.15966796875,-0.1201171875,753,1022,1023,1023,1021,1,0,0,0
A,0.27478415253241595,4.103525639482565,-0.27717820650027525,0.9743329364801453,1.3688633657819171,-0.9721268996428322,-0.956787109375,-0.171630859375,-0.095703125,756,1023,1023,1022,1022,1,0,0,0
A,0.29634498043148044,4.149882898895513,-0.27358176589738004,2.8063940051824354,0.9261152741788637,0.4019189018838854,-0.947265625,-0.1748046875,-0.125,757,1023,1021,1023,1023,1,0,0,0
A,0.299977770359297,4.206099134065287,-0.26683701656310455,0.9285314097625881,1.903214510820085,0.7072624133342671,-0.956298828125,-0.159912109375,-0.119873046875,752,1014,1023,1015,1023,1,0,0,0
A,0.31002848170929204,4.263325864248946,-0.2606155667231413,1.5621191960221301,2.002451152041459,0.6538272988304503,-0.95361328125,-0.15625,-0.106689453125,753,1019,1022,1023,1021,1,0,0,0
A,0.31610794047821444,4.320968288544665,-0.26593122141769004,1.2186077456404507,2.0329855031864974,-0.49884445689474066,-0.946044921875,-0.147216796875,-0.140625,751,1021,1021,1021,1023,1,0,0,0
A,0.3361150060336288,4.396293698570876,-0.2721528785697747,2.6384550738847254,3.803977869598711,-0.5980810981161145,-0.947998046875,-0.15234375,-0.119384765625,755,1023,1020,1023,1021,1,0,0,0
A,0.3603414634127144,4.456880090415734,-0.27780365109300503,3.1041039288465573,2.338329014636879,-0.5293788080397787,-0.9560546875,-0.166259765625,-0.115966796875,751,1022,1021,1022,1021,1,0,0,0
A,0.4419860757662091,4.558216707670642,-0.2706882950308914,8.791126829609917,6.429932068071993,0.7148960011205266,-0.939208984375,-0.175048828125,-0.1083984375,754,1022,1022,1022,1022,1,0,0,0
A,0.5113381792824213,4.643417902582065,-0.2636473616871627,7.378913089151901,4.788710694026192,0.6996288255480075,-0.975341796875,-0.132568359375,-0.11279296875,750,1022,1023,1023,1023,1,0,0,0
A,0.5802066618037629,4.730472514946079,-0.2701098964988378,7.55448560823587,4.97955038868268,-0.6438826248336719,-0.962158203125,-0.161865234375,-0.12841796875,749,1023,1023,1021,1023,1,0,0,0
A,0.5962515246701852,4.793563147633272,-0.28770026315097247,2.2873100357167866,2.5597030604384057,-1.7354856782687866,-0.9345703125,-0.13720703125,-0.12548828125,747,1022,1023,1021,1023,1,0,0,0
A,0.5975261908580555,4.869051715955716,-0.3007643039951452,0.913264234190069,3.8268786329574898,-1.2851039988794732,-0.959228515625,-0.177978515625,-0.12353515625,744,1021,1022,1023,1022,1,0,0,0
A,0.6716738790403554,4.922644283609455,-0.2792852069853749,7.8598291196862515,1.6665732894460392,2.172911268296099,-0.94873046875,-0.16357421875,-0.12890625,748,1021,1023,1023,1023,1,0,0,0
A,0.6943524462710736,5.005952106009041,-0.26236287019532145,2.661355837243504,4.620771762728482,1.676728062189229,-0.924560546875,-0.13671875,-0.119384765625,747,1022,1023,1021,1023,1,0,0,0
A,0.7980050839062329,5.097802220895571,-0.22095228721121393,10.70715736396106,5.536802297079627,4.111842566006023,-0.942626953125,-0.183837890625,-0.1376953125,745,1022,1022,1023,1022,1,0,0,0
A,1.0287192734829134,5.185784516364343,-0.14204856574115687,22.95143217312137,5.200924434484207,7.82176623012816,-0.936279296875,-0.1513671875,-0.13623046875,748,1023,1022,1023,1022,1,0,0,0
A,1.1545692508834071,5.28924697729037,-0.11469561604784878,12.661355837243503,6.643672526087261,2.623292947685412,-0.96337890625,-0.0869140625,-0.1279296875,744,1021,1023,1021,1023,1,0,0,0
A,1.1301469856465898,5.306497837704921,-0.14513364228726475,-1.6439876742068775,-2.066251138034877,-2.9415925484977943,-0.956298828125,-0.13720703125,-0.139892578125,745,1022,1023,1022,1021,1,0,0,0
A,1.2367646760450557,5.400921725446653,-0.1106192773603902,11.04303522655648,5.811611457384971,3.379018138525107,-0.9384765625,-0.18310546875,-0.128173828125,749,1021,1023,1021,1022,1,0,0,0
A,1.2259106231707326,5.441387457761972,-0.10962993785392888,-0.7279571398557323,0.30016107570558126,0.12710974157854193,-0.967529296875,-0.0986328125,-0.12744140625,751,1022,1021,1021,1022,1,0,0,0
A,1.139244717121312,5.480762770696756,-0.13690045358094505,-7.811926605504588,0.1627564955529095,-2.659149800406191,-0.950439453125,-0.156982421875,-0.130615234375,749,1019,1021,1019,1023,1,0,0,0
A,1.2702553084365344,5.557925967420895,-0.09935375335521884,13.356012325793122,4.0787870299040545,3.707262413334267,-0.960205078125,-0.16455078125,-0.150634765625,753,1023,1023,1022,1023,1,0,0,0
A,1.28083403165062,5.58284986591321,-0.1116977193914139,1.4857833181595348,-1.2876251838364035,-1.1706001820855803,-0.958984375,-0.08251953125,-0.12548828125,752,1023,1023,1023,1022,1,0,0,0
A,1.187934221523573,5.615096986167861,-0.16001496662293963,-8.300476223825198,-0.6082358708593043,-4.743119266055046,-0.94091796875,-0.13525390625,-0.123779296875,749,1022,1023,1023,1022,1,0,0,0
A,1.1961239674027837,5.662033995296874,-0.1532041631306815,1.5010504937320537,1.0177183276139783,0.7301631766930456,-0.94140625,-0.1962890625,-0.126953125,754,1023,1022,1023,1023,1,0,0,0
A,1.2419069101308104,5.694012281270385,-0.13851088616556065,4.88272988304503,-0.5089992296379302,1.5164227186777786,-0.95849609375,-0.11962890625,-0.131103515625,749,1021,1023,1022,1023,1,0,0,0
A,1.173990331111435,5.7250469480212365,-0.1724353995561285,-6.094369353596191,-0.7151060998669378,-3.3232719378107713,-0.940185546875,-0.0947265625,-0.140625,747,1023,1023,1023,1021,1,0,0,0
A,1.160854286751597,5.764312134313079,-0.18981827417384523,-0.47604874290916754,0.18565725891168816,-1.6667833881924508,-0.947021484375,-0.17431640625,-0.1220703125,748,1021,1023,1021,1021,1,0,0,0
A,1.1686458352606977,5.81592648209682,-0.1898800333339926,1.3331115624343437,1.437565655858253,0.02023951257090828,-0.94580078125,-0.145263671875,-0.133056640625,747,1023,1022,1021,1021,1,0,0,0
A,1.12289924074614,5.844760014084142,-0.2191497674204819,-3.7813922543595493,-0.9059457945234264,-2.84235590727642,-0.9560546875,-0.13134765625,-0.124267578125,747,1023,1022,1023,1023,1,0,0,0
A,1.0912110329669265,5.898281843550102,-0.25173992224382713,-2.1401708803137476,1.590237411583444,-3.2011345332306185,-0.943603515625,-0.18212890625,-0.12158203125,748,1021,1022,1022,1022,1,0,0,0
A,1.0905856216317011,5.938273136628159,-0.2528706252808992,0.4705161425870157,0.26962672456054315,-0.06372995307794671,-0.959716796875,-0.138671875,-0.13134765625,751,1023,1021,1021,1023,1,0,0,0
A,0.9921258122378194,5.974896529744859,-0.30033048043373145,-8.888262483367184,-0.15785419146999113,-4.66678338819245,-0.960205078125,-0.12353515625,-0.11962890625,748,1023,1023,1021,1023,1,0,0,0
A,0.9575404230645981,6.033439556615291,-0.31002291172412966,-2.6592548497793964,2.139855732194131,-0.9263253729252748,-0.94091796875,-0.182373046875,-0.1279296875,749,1019,1023,1023,1023,1,0,0,0
A,0.9445108898773121,6.065133945013192,-0.304488052546285,-0.8348273688633663,-0.5471671685692279,0.6156593598991525,-0.964111328125,-0.140380859375,-0.13037109375,747,1023,1021,1022,1021,1,0,0,0
A,0.9248951639811372,6.105379941239981,-0.3203629555691238,-1.2928426360389387,0.26962672456054315,-1.529378808039779,-0.9462890625,-0.130859375,-0.125,741,1019,1023,1021,1022,1,0,0,0
A,0.9143649974521686,6.166187994484995,-0.33317277331704925,-0.31574339939771745,2.3459626024231386,-1.2469360599481756,-0.9443359375,-0.156982421875,-0.129150390625,748,1023,1019,1023,1022,1,0,0,0
A,0.9717770302037265,6.226088262495854,-0.3134880851625012,6.127004692205336,2.307794663491841,1.9820715736396104,-0.948486328125,-0.156982421875,-0.126953125,748,1022,1019,1021,1021,1,0,0,0
B,0.9395604598741873,6.2601857540074395,-0.334126630154273,-2.468415155122908,-0.34869388612647967,-1.9873940752153514,-0.93994140625,-0.136962890625,-0.106689453125,1023,763,514,540,768,1,0,0,0
B,0.9459486999926024,6.308308554045743,-0.3379875158497078,1.1880733944954125,1.0787870299040545,-0.3461727011695497,-0.949951171875,-0.1318359375,-0.083251953125,1022,760,514,541,768,1,0,0,0
B,0.9400056353830625,6.3517140893915744,-0.32896666736123675,-0.31574339939771745,0.6131381749422226,0.9286364591357938,-0.951416015625,-0.098876953125,-0.099365234375,1023,760,516,540,768,1,0,0,0
B,0.9291668030887622,6.396819238656005,-0.3397842380409678,-0.40734645283283166,0.773443518453673,-1.025562014146649,-0.939208984375,-0.143798828125,-0.098876953125,1023,754,508,532,757,1,0,0,0
B,0.9528219756991111,6.418107910284285,-0.34188054182318506,2.7682260662511378,-1.6158694586455635,-0.14006583094054204,-0.95166015625,-0.099365234375,-0.10498046875,1023,752,512,533,761,1,0,0,0
B,0.930371902991429,6.459503751838904,-0.34245046996836953,-1.7737586665732898,0.4070313047132149,-0.010294838574129828,-0.9521484375,-0.121337890625,-0.087890625,1021,756,508,534,766,1,0,0,0
B,0.9872824914230882,6.486333361277677,-0.3325010959352716,6.127004692205336,-1.0204496113173194,1.0660410392884656,-0.959716796875,-0.144287109375,-0.088623046875,1020,754,506,527,758,1,0,0,0
B,0.982752602427562,6.4927758352501765,-0.3287428431794803,-0.10963652916870958,-3.089151901393655,0.4706211919602213,-0.95263671875,-0.1005859375,-0.079345703125,1016,755,507,527,756,1,0,0,0
B,1.0095082671631044,6.546816496493249,-0.32565250045164423,3.134638279991596,1.6818404650185586,0.3332166118075495,-0.951416015625,-0.128662109375,-0.07861328125,1021,750,504,531,753,1,0,0,0
B,1.0605445717706812,6.602812946732858,-0.33013135617245487,5.5239512570908325,1.8497793963162683,-0.4377757546046642,-0.95458984375,-0.096923828125,-0.096923828125,1023,749,504,529,760,1,0,0,0
B,1.0719544685467048,6.6424799908952465,-0.3232530997326655,1.5086840815183133,0.2467259612017645,0.7301631766930456,-0.951416015625,-0.116943359375,-0.092529296875,1022,747,498,531,759,1,0,0,0
B,1.1115577650232293,6.711412609559452,-0.3177978441177447,4.272042860144268,3.1627564955529097,0.5240563064640381,-0.945556640625,-0.09765625,-0.093505859375,1023,746,505,533,762,1,0,0,0
B,1.1587392336977629,6.793571827204154,-0.30025834160590575,4.989600112052664,4.5215351215071085,1.7072624133342669,-0.96484375,-0.12646484375,-0.0830078125,1021,743,502,543,762,1,0,0,0
B,1.2096068922566194,6.839399757177219,-0.29708328960249886,5.424714615869458,0.8497793963162683,0.3408501995938091,-0.94921875,-0.098388671875,-0.09521484375,1023,745,505,546,768,1,0,0,0
B,1.2366526204335977,6.910462955802762,-0.29119302692560584,3.1193711044190766,3.3917641291406957,0.5698578331815953,-0.94384765625,-0.12646484375,-0.096435546875,1022,741,503,549,769,1,0,0,0
B,1.3017385272554065,6.9581117252463045,-0.28624018629194947,6.8598291196862515,1.0406190909727568,0.5164227186777786,-0.9677734375,-0.110107421875,-0.104248046875,1021,745,507,551,776,1,0,0,0
B,1.3058431745512624,6.953724221438374,-0.30577669366337235,1.0354016387702218,-4.218922893760067,-1.7965543805588626,-0.95849609375,-0.10302734375,-0.09619140625,1023,747,504,549,779,1,0,0,0
B,1.2991600209564824,7.005041120933779,-0.3131865632449714,-0.13253729252748814,1.3841305413544363,-0.7125849149100077,-0.94970703125,-0.11669921875,-0.08544921875,1023,735,503,542,771,1,0,0,0
B,1.3205432065741547,7.040078102811778,-0.30973013190999404,2.5392184326633513,-0.21892289376006757,0.4019189018838854,-0.954833984375,-0.116455078125,-0.0810546875,1022,743,499,546,769,1,0,0,0
B,1.2947748372308818,7.099602946133854,-0.3203768709729125,-2.040934239092374,2.1932908466979475,-1.0560963652916873,-0.9638671875,-0.107421875,-0.0791015625,1021,749,501,544,772,1,0,0,0
B,1.3288360311038971,7.156807116018146,-0.3117217202305855,3.745325302892359,2.0100847398277186,0.8675677568457174,-0.94775390625,-0.1171875,-0.0986328125,1023,740,499,536,761,1,0,0,0
B,1.3658368314450842,7.2054872241124395,-0.3144579940399617,4.027768050983962,1.1169549688353524,-0.2622032355206948,-0.961669921875,-0.078857421875,-0.10595703125,1023,741,496,537,767,1,0,0,0
B,1.3682392380346742,7.26474140045065,-0.31757069908482555,0.6995237761748019,2.1856572589116885,-0.308004762238252,-0.953125,-0.110595703125,-0.086181640625,1023,745,498,535,766,1,0,0,0
B,1.3865002958607777,7.323735587332561,-0.31598025527977097,2.2186077456404507,2.170390083339169,0.15764409272358004,-0.952392578125,-0.1083984375,-0.0810546875,1020,747,497,537,760,1,0,0,0
B,1.4124031162140915,7.392392876315219,-0.31141111122608184,2.9743329364801454,3.147489319980391,0.43245325302892357,-0.956298828125,-0.1171875,-0.093017578125,1022,742,504,533,760,1,0,0,0
B,1.423603109987885,7.457309343455092,-0.3023454173124116,1.4094474402969392,2.781077106239932,0.8828349324182365,-0.949462890625,-0.106689453125,-0.083251953125,1023,736,497,536,763,1,0,0,0
B,1.4631799085881483,7.522625566327443,-0.27924142722967593,4.1880733944954125,2.872680159675047,2.287415085089992,-0.958251953125,-0.140625,-0.081298828125,1022,739,497,529,759,1,0,0,0
B,1.4479002067612854,7.579588154337174,-0.28052152714829237,-1.2394075215351217,1.9490160375376424,-0.14006583094054204,-0.9677734375,-0.073486328125,-0.091064453125,1023,742,495,533,761,1,0,0,0
B,1.4843214554115198,7.643153198471408,-0.2848727526683211,4.165172631136634,2.620771762728482,-0.4377757546046642,-0.947998046875,-0.122314453125,-0.091552734375,1022,735,495,529,753,1,0,0,0
B,1.512524601793413,7.692454995131525,-0.2716115807554653,3.027768050983962,1.2314587856292454,1.3332166118075495,-0.955322265625,-0.101806640625,-0.086181640625,1023,741,496,533,759,1,0,0,0
B,1.5187530481857294,7.744174151068285,-0.28427401801924085,1.1880733944954125,1.407031304713215,-1.2393024721619161,-0.95361328125,-0.104736328125,-0.09130859375,1021,741,495,535,762,1,0,0,0
B,1.5367010306880569,7.792416665777063,-0.28930951834474483,2.249142096785489,1.0787870299040545,-0.4759436935359619,-0.9580078125,-0.102783203125,-0.0888671875,1021,737,496,537,759,1,0,0,0
B,1.5584413433849915,7.868890452198629,-0.28701071580371545,2.577386371594649,3.926115274178864,0.1805448560823587,-0.960205078125,-0.115966796875,-0.092041015625,1021,742,494,539,760,1,0,0,0
B,1.563303812642306,7.898444586446636,-0.27742903280819176,0.7758596540373972,-0.7456404510119758,1.027873100357168,-0.95947265625,-0.112548828125,-0.096435546875,1022,745,495,544,766,1,0,0,0
B,1.5719426298715902,7.934059124612857,-0.28448035350695133,1.2644092723580078,-0.19602213040128902,-0.6515162126199313,-0.955810546875,-0.081298828125,-0.09619140625,1023,737,493,537,760,1,0,0,0
B,1.5810545334219652,8.000581900185102,-0.29315846109593646,1.4018138525106796,2.8955809230338256,-0.8881574339939772,-0.954833984375,-0.098388671875,-0.087646484375,1023,742,495,541,764,1,0,0,0
B,1.5758190708707147,8.04239386092368,-0.3266490116271067,0.40944744029693925,0.36886336578191714,-3.262203235520695,-0.96240234375,-0.12451171875,-0.089111328125,1022,739,497,540,764,1,0,0,0
B,1.5988819556776568,8.103869796925345,-0.3397719227214548,2.9056306464038095,2.3841305413544363,-1.308004762238252,-0.950439453125,-0.1103515625,-0.103759765625,1023,737,491,537,757,1,0,0,0
B,1.6067501239351294,8.169563193865956,-0.34377631418753357,1.2186077456404507,2.8268786329574898,-0.4225085790321451,-0.95751953125,-0.100341796875,-0.095458984375,1022,738,491,537,766,1,0,0,0
B,1.6088277650180753,8.217984278195834,-0.3770523129253516,1.1117375166328172,1.0253519154002377,-3.262203235520695,-0.944091796875,-0.113037109375,-0.091064453125,1022,737,494,535,767,1,0,0,0
B,1.6262464864720838,8.272909978051493,-0.3839021635764016,2.2109741578541913,1.7429091673086348,-0.6744169759787101,-0.960205078125,-0.098876953125,-0.079833984375,1022,738,491,541,761,1,0,0,0
B,1.6372114790866852,8.332268099600194,-0.3870594982617218,1.5544856082358707,2.2009244344842074,-0.31563835002451157,-0.95703125,-0.1103515625,-0.098388671875,1020,737,494,539,760,1,0,0,0
B,1.6341628986455559,8.386394641824724,-0.39320785609552994,0.23387492121296982,1.6742068772322989,-0.5904475103298551,-0.94970703125,-0.11962890625,-0.10546875,1023,734,493,538,761,1,0,0,0
B,1.653659638007063,8.445297495655375,-0.3871588414610167,2.3025772112893055,2.1856572589116885,0.6003921843266334,-0.953857421875,-0.11767578125,-0.09765625,1023,736,490,539,761,1,0,0,0
B,1.6638305485460234,8.51037530693813,-0.37726402706119616,1.2873100357167866,2.811611457384971,0.959170810280832,-0.955322265625,-0.111083984375,-0.094482421875,1016,735,490,536,760,1,0,0,0
B,1.6789360167668874,8.568006477774157,-0.3718917385064451,1.7834932418236569,2.0482526787590163,0.5240563064640381,-0.957275390625,-0.094970703125,-0.102294921875,1022,733,493,533,756,1,0,0,0
B,1.6969483357302537,8.65509996756037,-0.3677097858059078,2.134638279991596,4.994817564255199,0.32558302402128997,-0.957763671875,-0.1064453125,-0.101318359375,1022,734,491,534,761,1,0,0,0
B,1.7447010002002097,8.729978557455523,-0.3430720450002953,4.791126829609917,3.8345122207437496,2.379018138525107,-0.94580078125,-0.10302734375,-0.09814453125,1023,734,493,537,761,1,0,0,0
B,1.7374275773730434,8.789793060643778,-0.3447157305148006,-0.36154492611527456,2.2467259612017645,-0.1782337698718398,-0.968505859375,-0.092041015625,-0.078369140625,1023,733,491,536,760,1,0,0,0
B,1.7573307939620695,8.850028552297875,-0.3431491676879617,2.39418026472442,2.307794663491841,0.1500105049373205,-0.953369140625,-0.114501953125,-0.099853515625,1022,730,489,534,759,1,0,0,0
B,1.7752842006232992,8.909620089769122,-0.33467969415471316,2.0659359899152596,2.261993136774284,0.8293998179144197,-0.951171875,-0.107177734375,-0.0966796875,1023,736,489,536,759,1,0,0,0
B,1.7965011523816383,8.966513789043818,-0.33179596857781596,2.4399817914419772,1.971916800896421,0.27978149730373275,-0.959228515625,-0.097900390625,-0.094970703125,1019,734,488,537,764,1,0,0,0
B,1.8223149510910097,9.047709500306556,-0.32545673977397926,2.867462707472512,4.4146648924994745,0.5469570698228167,-0.948974609375,-0.10205078125,-0.079833984375,1023,732,489,539,761,1,0,0,0
B,1.8495153149111725,9.112763668881692,-0.32674678481198666,3.081203165487779,2.773443518453673,-0.1629665942993207,-0.962158203125,-0.093017578125,-0.108154296875,1023,735,491,539,767,1,0,0,0
B,1.8523675832364728,9.160998864525197,-0.36000729983930796,1.1117375166328172,0.9871839764689401,-3.2698368233069544,-0.9619140625,-0.08203125,-0.112060546875,1021,735,490,533,760,1,0,0,0
B,1.852447372812395,9.215200036102885,-0.3667252543107588,0.47814973037327513,1.6742068772322989,-0.659149800406191,-0.95556640625,-0.09912109375,-0.123779296875,1021,737,491,537,761,1,0,0,0
B,1.8520546849365318,9.245681500726304,-0.3791656403973878,0.5163176693045728,-0.7151060998669378,-1.1476994187268015,-0.964599609375,-0.09814453125,-0.122802734375,1023,737,490,535,766,1,0,0,0
B,1.8797664760639543,9.289185532790134,-0.38498620342097145,3.2720428601442677,0.6131381749422226,-0.5293788080397787,-0.944091796875,-0.1083984375,-0.099853515625,1023,728,488,529,758,1,0,0,0
B,1.8695586584626809,9.327226608119421,-0.39896752112974887,-0.3920792772603128,0.040619090972756844,-1.3156383500245115,-0.953857421875,-0.108154296875,-0.095458984375,1021,732,488,529,761,1,0,0,0
B,1.874053661576906,9.363692639579291,-0.40558423631605983,0.9208978219763285,-0.09678548917991492,-0.5904475103298551,-0.962890625,-0.099365234375,-0.106201171875,1023,735,491,529,763,1,0,0,0
B,1.8858650662409735,9.410672466001953,-0.400143842035718,1.5392184326633513,1.0024511520414592,0.5774914209678549,-0.95654296875,-0.120361328125,-0.098876953125,1021,710,472,484,731,1,0,0,0
B,1.8749472354690082,9.469031798270281,-0.4014779381031949,-0.705056376496954,2.1093213810490927,-0.14006583094054204,-0.963134765625,-0.099365234375,-0.09912109375,1021,710,474,484,729,1,0,0,0
B,1.913299679272676,9.524324073704555,-0.3951778963025668,4.157539043350374,1.8345122207437492,0.6309265354716717,-0.948486328125,-0.114501953125,-0.10888671875,1023,710,474,483,729,1,0,0,0
B,1.9111862217562896,9.564721017767368,-0.40372103778062146,0.31021079907556515,0.2925274879193217,-0.7889207927726031,-0.95703125,-0.103271484375,-0.10791015625,1023,712,473,484,725,1,0,0,0
B,1.903809154125984,9.62133071863019,-0.4262868338904736,0.06593598991525984,1.8726801596750469,-2.216401708803138,-0.957763671875,-0.115478515625,-0.09716796875,1023,710,472,486,728,1,0,0,0
B,1.9326793772367221,9.680371927278346,-0.4285856724024661,3.378913089151901,2.1856572589116885,-0.22403529658939703,-0.95703125,-0.122314453125,-0.098876953125,1023,710,473,485,727,1,0,0,0
B,1.9279087017247867,9.725113050801411,-0.4432702271612255,0.19570698228167216,0.7123748161635965,-1.3996078156733667,-0.955810546875,-0.114990234375,-0.10205078125,1023,707,472,481,726,1,0,0,0
B,1.9255573963657726,9.787530958936918,-0.44761938904995435,0.32547797464808426,2.521535121507108,-0.4301421668184048,-0.944580078125,-0.129638671875,-0.096435546875,1023,708,474,484,722,1,0,0,0
B,1.9403836102166943,9.839159879825237,-0.44377328417272743,1.8827298830450307,1.4681000070032912,0.4095524896701449,-0.953857421875,-0.12548828125,-0.1015625,1021,705,470,484,726,1,0,0,0
B,1.9543008481607713,9.878018465572866,-0.4404899289927653,1.6918901883885422,0.1780236711254286,0.3790181385251068,-0.960205078125,-0.09814453125,-0.12060546875,1021,715,473,485,729,1,0,0,0
B,1.9456994917872454,9.929557575082354,-0.4477785991868346,-0.3386441627564958,1.4146648924994745,-0.6973177393374886,-0.953857421875,-0.1064453125,-0.088134765625,1023,707,469,483,722,1,0,0,0
B,1.9569670265929011,9.988416227406512,-0.44856216123883913,1.5544856082358707,2.170390083339169,-0.07899712865046571,-0.96728515625,-0.113037109375,-0.094482421875,1016,717,475,480,725,1,0,0,0
B,1.968780795999263,10.034727818849664,-0.4549811307286901,1.7529588906786187,0.9032145108200851,-0.5828139225435954,-0.961669921875,-0.125,-0.099609375,1015,713,478,483,728,1,0,0,0
B,1.9772524944772611,10.093689679031408,-0.46302619027284864,1.3865466769381607,2.15512290776665,-0.7965543805588627,-0.95166015625,-0.10791015625,-0.105712890625,1022,702,470,478,727,1,0,0,0
B,1.9770806288717209,10.145300087990224,-0.47484998562186054,0.6460886616709851,1.4146648924994745,-1.1324322431542826,-0.958984375,-0.12353515625,-0.098876953125,1021,711,474,482,726,1,0,0,0
B,1.9958431246292276,10.193572622656703,-0.47488079652424053,2.3560123257931225,1.1245885566216118,0.043140275929686944,-0.950439453125,-0.12841796875,-0.092529296875,1022,709,473,482,726,1,0,0,0
B,1.9880367832983439,10.247000955682479,-0.4810967755705173,-0.23940752153512168,1.6131381749422224,-0.5904475103298551,-0.951416015625,-0.1162109375,-0.099609375,1022,702,476,480,722,1,0,0,0
B,1.9915483029821657,10.304514714875921,-0.48176368046066353,0.8521955318999926,2.0482526787590163,-0.0484627775054276,-0.9501953125,-0.131103515625,-0.09228515625,1023,710,472,484,727,1,0,0,0
B,2.011706153556867,10.360290831243985,-0.47422806604479634,2.3102107990755654,1.8955809230338256,0.7530639400518243,-0.950439453125,-0.116455078125,-0.1123046875,1015,709,473,482,724,1,0,0,0
B,1.9973874059831243,10.416439963004205,-0.48384502930517936,-0.918796834512221,1.8650465718887874,-0.9492261362840536,-0.9404296875,-0.091552734375,-0.1064453125,1023,709,467,482,723,1,0,0,0
B,1.9990978817739677,10.459884839976189,-0.48796788409650255,0.6460886616709851,0.6207717627284821,-0.35380628895580923,-0.955322265625,-0.109619140625,-0.117919921875,1023,711,471,483,721,1,0,0,0
B,2.017637039682478,10.497921132875828,-0.48816176477369694,2.2567756845717484,0.09405420547657362,0.0507738637159465,-0.944580078125,-0.107421875,-0.103759765625,1023,710,472,483,727,1,0,0,0
B,1.98071095698303,10.538951281916304,-0.5088512227110497,-2.918796834512221,0.3230618390643599,-1.972126899642832,-0.95361328125,-0.107666015625,-0.103759765625,1021,709,471,484,723,1,0,0,0
B,2.0086394672912657,10.5806119148328,-0.4991751545686799,3.081203165487779,0.49863435814832935,1.0202395125709083,-0.951416015625,-0.12548828125,-0.0986328125,1021,707,470,480,721,1,0,0,0
B,2.000632212004278,10.62746851640535,-0.5025423059636168,-0.3539113383290151,0.9642832131101615,-0.2927375866657329,-0.93994140625,-0.10302734375,-0.099853515625,1023,711,473,480,734,1,0,0,0
B,1.9824687158774263,10.690794115245202,-0.5354006438642951,-0.7890258421458087,2.5139015337208486,-3.239302472161916,-0.952880859375,-0.113525390625,-0.0986328125,1023,708,473,480,723,1,0,0,0
B,2.006133861856799,10.73765140188509,-0.5283451441654634,2.699523776174802,1.0100847398277186,0.7454303522655648,-0.957763671875,-0.126708984375,-0.111328125,1023,709,472,480,727,1,0,0,0
B,2.0028219163733794,10.776963259359912,-0.5327803410172745,0.14227186777785517,0.20855802227046683,-0.36907346452832834,-0.955322265625,-0.1064453125,-0.103759765625,1023,706,469,477,726,1,0,0,0
B,1.9899376683506762,10.807146671834865,-0.5493203881259701,-0.5294838574129845,-0.7380068632257164,-1.5141116324672597,-0.947998046875,-0.120849609375,-0.09765625,1021,706,475,479,722,1,0,0,0
B,2.021736705040384,10.863567724015294,-0.5440715870146868,3.5697527838083896,1.9642832131101615,0.5393234820365571,-0.949951171875,-0.130859375,-0.087158203125,1017,707,471,483,724,1,0,0,0
B,2.0137515795059127,10.911074284287714,-0.5447024661661399,-0.40734645283283166,1.0406190909727568,-0.025562014146648937,-0.95361328125,-0.10302734375,-0.098388671875,1021,703,467,477,720,1,0,0,0
B,1.99524016775549,10.96701382294377,-0.5571330441252733,-1.1783388192450457,1.8497793963162683,-1.2011345332306185,-0.9560546875,-0.118896484375,-0.102294921875,1023,707,471,482,718,1,0,0,0
B,2.0366326004214392,11.017210664630932,-0.5513826831628588,4.462882554800756,1.338329014636879,0.6003921843266334,-0.955810546875,-0.117919921875,-0.104248046875,1023,713,469,480,722,1,0,0,0
B,2.036246749941253,11.057276017821774,-0.5627382551648112,0.5697527838083896,0.2619931367742836,-1.0484627775054274,-0.953125,-0.106689453125,-0.10791015625,1020,709,467,476,722,1,0,0,0
B,2.02917371991924,11.104024486226217,-0.5728817267364048,-0.06383500245115226,0.9413824497513829,-0.941592548497794,-0.950927734375,-0.120849609375,-0.091552734375,1019,709,471,480,722,1,0,0,0
B,2.055194023375776,11.158908538518974,-0.5658595911382089,2.89036347083129,1.8116114573849706,0.7072624133342671,-0.96435546875,-0.11669921875,-0.10693359375,1023,712,472,480,716,1,0,0,0
B,2.0409564305128245,11.220435347644022,-0.5750304152073576,-0.8653617200084041,2.4146648924994745,-0.9110581973527557,-0.955810546875,-0.103759765625,-0.098388671875,1022,711,470,476,727,1,0,0,0
B,2.019363961326643,11.278789406378005,-0.5830539861049978,-1.5600182085580228,2.1093213810490927,-0.773653617200084,-0.94970703125,-0.120361328125,-0.110107421875,1022,710,469,479,722,1,0,0,0
B,2.0448645897118,11.335283597493087,-0.5749247583851419,2.8292947685412138,1.9795503886826804,0.8141326423419006,-0.952880859375,-0.11962890625,-0.111083984375,1022,710,471,477,722,1,0,0,0
B,2.0474330227018003,11.37451404248717,-0.5842673166162589,0.8063940051824354,0.18565725891168816,-0.8499894950626795,-0.9580078125,-0.10107421875,-0.11669921875,1021,712,470,479,718,1,0,0,0
B,2.0294811561524657,11.41516717545819,-0.6040801485413206,-0.9645983612297782,0.30016107570558126,-1.8652566706351985,-0.9541015625,-0.119384765625,-0.099365234375,1021,711,471,477,723,1,0,0,0
B,2.0670267451071607,11.466178297917525,-0.5988270451332475,4.142271867777856,1.4299320680719936,0.5622242453953358,-0.950439453125,-0.132568359375,-0.093017578125,1023,712,465,473,717,1,0,0,0
B,2.058502791151571,11.511931529595794,-0.6026967227761134,-0.3462777505427552,0.8650465718887874,-0.3232719378107711,-0.959716796875,-0.116943359375,-0.091552734375,1023,708,468,474,717,1,0,0,0
B,2.0498260753459805,11.580252926636913,-0.6107054252057001,-0.254674697107641,3.1093213810490927,-0.8041879683451222,-0.952392578125,-0.12255859375,-0.093994140625,1021,709,469,481,722,1,0,0,0
B,2.0794823261611888,11.63104256623331,-0.6104956768158151,3.39418026472442,1.3841305413544363,0.058407451502206054,-0.961669921875,-0.11865234375,-0.10009765625,1020,708,466,476,720,1,0,0,0
B,2.0810412721158893,11.672961847604936,-0.6196743111473316,0.7376917151060995,0.4604664192170317,-0.8347223194901604,-0.951904296875,-0.108642578125,-0.1123046875,1021,704,467,475,714,1,0,0,0
B,2.0756959639766017,11.737118562616233,-0.6314455146477458,0.16517263113663394,2.681840465018558,-1.1553330065130614,-0.955810546875,-0.125732421875,-0.10107421875,1022,715,467,478,725,1,0,0,0
B,2.1117721486641465,11.783343790401773,-0.6241058172323767,3.9056306464038095,0.9566496253239019,0.775964703410603,-0.96875,-0.1240234375,-0.1064453125,1021,710,467,474,715,1,0,0,0
B,2.1065633847094696,11.82016324851566,-0.6288133163706995,-0.06383500245115226,-0.03571678688983848,-0.38434064010084745,-0.95556640625,-0.099365234375,-0.107421875,1019,715,468,470,718,1,0,0,0
B,2.0970461833176537,11.873896619309157,-0.6417505331557081,-0.23177393374886224,1.636038938301001,-1.2316688843756567,-0.94873046875,-0.123291015625,-0.10205078125,1023,715,467,475,716,1,0,0,0
B,2.135256901914093,11.918012209193368,-0.6379396290852136,4.195706982281672,0.7352755795223752,0.4400868408151831,-0.954833984375,-0.1240234375,-0.107666015625,1023,722,466,471,716,1,0,0,0
B,2.1280187002519604,11.946331204254893,-0.6494233132285531,-0.03330065130611426,-0.8983122067371669,-0.9950276630016107,-0.95361328125,-0.123291015625,-0.09619140625,1019,721,465,472,718,1,0,0,0
B,2.1130906164415713,11.996981202787572,-0.6676894998512187,-0.6745220253519157,1.307794663491841,-1.743119266055046,-0.952392578125,-0.118896484375,-0.086669921875,1022,716,470,470,718,1,0,0,0
B,2.1344834059839157,12.046407446047374,-0.6595857467052358,2.4399817914419772,1.2848939001330622,0.8446669934869389,-0.95947265625,-0.129150390625,-0.10791015625,1020,720,471,477,717,1,0,0,0
B,2.1277300968199526,12.097686434948251,-0.6640426488200931,-0.20123958260382402,1.4146648924994745,-0.407241403459626,-0.95263671875,-0.1044921875,-0.10546875,1020,718,467,471,718,1,0,0,0
B,2.109376889979912,12.166942178780923,-0.6750375501642734,-1.1783388192450457,3.1932908466979475,-1.1018978920092444,-0.938720703125,-0.114501953125,-0.09814453125,1022,714,464,472,719,1,0,0,0
B,2.128903388265075,12.218910851482859,-0.6693543364043469,2.340745150220603,1.5368022970796271,0.608025772112893,-0.9541015625,-0.139892578125,-0.121337890625,1018,719,469,469,718,1,0,0,0
B,2.1299896026668343,12.254200992969123,-0.6772820139403232,0.6384550738847254,-0.19602213040128902,-0.6896841515512292,-0.9560546875,-0.099609375,-0.102294921875,1020,718,469,472,721,1,0,0,0
B,2.125482123317339,12.30183063144492,-0.6909360111245564,0.27967644793052693,1.0253519154002377,-1.2774704110932138,-0.952880859375,-0.120361328125,-0.10400390625,1014,715,465,472,709,1,0,0,0
B,2.144553330543622,12.345098907020228,-0.6989357357562747,2.5392184326633513,0.6131381749422226,-0.7049513271237481,-0.955810546875,-0.125732421875,-0.093017578125,1017,719,471,472,717,1,0,0,0
C,-0.004645036092942946,0.029645682534864003,-0.003572102608080737,1.0477714848559467,-0.5014247018679427,-0.35709009040700757,-0.718505859375,-0.3134765625,0.4345703125,1023,849,905,553,785,0,0,0,0
C,-0.03260651905910013,0.03553540909646329,-0.006615304698279716,-1.3339079044570306,-2.898371266753439,-0.3036549759031908,-0.711181640625,-0.298095703125,0.4306640625,1023,855,906,560,785,0,0,0,0
C,-0.04797196109529834,0.053800645533570016,-0.03209738537116075,0.009603545924649015,-1.6235621064480954,-2.547929785063496,-0.714111328125,-0.319580078125,0.445068359375,1021,855,904,553,779,0,0,0,0
C,-0.0684928952001703,0.07896183618038774,-0.06025996909363806,-0.47894607239596165,-0.9212720301122176,-2.81510535758258,-0.694580078125,-0.317138671875,0.4453125,1022,860,910,555,783,0,0,0,0
C,-0.11235929853542238,0.1028883849446708,-0.07072013204471356,-2.7766559960600836,-1.028142259119851,-1.0441129911703664,-0.694091796875,-0.326416015625,0.4345703125,1021,859,907,556,787,0,0,0,0
C,-0.12927399026824657,0.1334930851740901,-0.09317500758322385,0.01723713371090857,-0.31058500721145416,-2.2425862736131146,-0.696533203125,-0.35205078125,0.422119140625,1021,856,907,554,782,0,0,0,0
C,-0.12571215735453808,0.17605968853271617,-0.10741252230938413,1.99433637035213,0.8497203362999962,-1.4181587926970838,-0.6953125,-0.333740234375,0.4462890625,1023,855,906,555,781,0,0,0,0
C,-0.16551556575529344,0.21031811090972305,-0.10127449049052349,-2.356808667815809,0.010025679811446586,0.6200091462342139,-0.703857421875,-0.33544921875,0.445556640625,1023,853,911,558,780,0,0,0,0
C,-0.16829960047498402,0.25467165495001737,-0.11119461494141124,1.3378478207338094,1.0176592675977063,-0.9830442888802899,-0.70703125,-0.333740234375,0.426025390625,1023,859,907,554,781,0,0,0,0
C,-0.1761064258628695,0.2871137391473196,-0.12315302614754017,0.8034966756956414,-0.1884476026313015,-1.1891511591092976,-0.709716796875,-0.326416015625,0.4345703125,1023,854,904,554,784,0,0,0,0
C,-0.1941066662722421,0.31469253644851447,-0.1280079388652683,-0.21940408766313724,-0.6769972209519122,-0.4792274949871602,-0.699462890625,-0.321533203125,0.423583984375,1021,856,906,552,782,0,0,0,0
C,-0.2090752808653079,0.32840142611669126,-0.1267869146735074,0.06303866042846579,-2.0739437858374083,0.12382594012734358,-0.708251953125,-0.3212890625,0.438232421875,1021,854,906,554,780,0,0,0,0
C,-0.2143949386673375,0.3716129430328569,-0.13735042295575858,1.0172371337109085,0.8726210996587748,-1.0441129911703664,-0.695556640625,-0.311279296875,0.424560546875,1023,855,908,555,781,0,0,0,0
C,-0.23367987406479954,0.3915767923301474,-0.1519577732417697,-0.440778133464664,-1.478523938509164,-1.4563267316283814,-0.7119140625,-0.302734375,0.435546875,1023,851,903,554,778,0,0,0,0
C,-0.264068315969494,0.40676135926009127,-0.17037135854589752,-1.456045309037183,-1.9136384423259578,-1.8380061209413587,-0.700927734375,-0.3203125,0.4423828125,1022,853,906,555,782,0,0,0,0
C,-0.27588410643889794,0.4341696094986737,-0.20311383585569628,0.45998522531396197,-0.6617300453793931,-3.265487036971893,-0.69580078125,-0.329833984375,0.43896484375,1022,859,908,558,780,0,0,0,0
C,-0.31119606022062746,0.4602960292255133,-0.21539980701247358,-1.9369613395715342,-0.8144018011045839,-1.2196855102543358,-0.6943359375,-0.321044921875,0.434326171875,1023,851,904,556,782,0,0,0,0
C,-0.34915216131010623,0.4942651820730261,-0.2104903741026323,-2.1278010342280225,0.002392092025187059,0.5055053294403207,-0.698974609375,-0.34521484375,0.44580078125,1023,857,905,554,771,0,0,0,0
C,-0.369077523597251,0.5077395543623439,-0.22537610591249793,-0.356808667815809,-2.0586766102648895,-1.4868610827734197,-0.701171875,-0.333984375,0.424560546875,1021,860,910,558,782,0,0,0,0
C,-0.37319703402069,0.5313100884742528,-0.2501697016081251,1.2309775917261758,-1.0434094346923701,-2.4715939072009006,-0.697998046875,-0.33203125,0.4326171875,1019,846,906,558,773,0,0,0,0
C,-0.3895405426648753,0.5586608181664436,-0.2526299035246575,-0.005663629647870039,-0.6769972209519122,-0.23495268582685488,-0.697021484375,-0.3330078125,0.443359375,1021,853,907,556,779,0,0,0,0
C,-0.41578782691124744,0.6022379580677797,-0.25788465936567406,-0.990396454075351,0.9489569775213703,-0.5021282583459389,-0.689453125,-0.330078125,0.439208984375,1023,861,912,558,779,0,0,0,0
C,-0.4186502231237911,0.615160435513307,-0.28521008548311655,1.33021423294755,-2.1197453125549655,-2.731135891933725,-0.696533203125,-0.3232421875,0.44140625,1023,854,905,551,777,0,0,0,0
C,-0.42128689278281395,0.6550361685147325,-0.2979328955578433,1.3912829352376261,0.5901783515671718,-1.250219861399374,-0.6904296875,-0.33349609375,0.44091796875,1022,855,906,557,776,0,0,0,0
C,-0.45612477324111833,0.6890353319633397,-0.28803186557537097,-1.8835262250677172,-0.028142259119851104,1.0093221233334506,-0.69140625,-0.32666015625,0.421875,1023,857,908,558,781,0,0,0,0
C,-0.4601630236541021,0.7229391615420252,-0.2987434272985373,1.2233440039399162,-0.020508671333591577,-1.0517465789566258,-0.702880859375,-0.332763671875,0.4365234375,1015,852,910,556,776,0,0,0,0
C,-0.4644656113194463,0.7620874882481656,-0.31040726190065415,1.1012065993597635,0.4604073592007596,-1.1433496323917403,-0.702392578125,-0.30859375,0.438720703125,1023,857,908,556,781,0,0,0,0
C,-0.4984657842794405,0.7894407117547229,-0.3269580629115424,-1.8453582861364195,-0.7075315720969504,-1.6395328384986105,-0.707763671875,-0.314697265625,0.43505859375,1022,857,907,555,783,0,0,0,0
C,-0.5134980639045421,0.8276317213151825,-0.3561254684784847,0.0783058360009849,0.3917050691244237,-2.8914412354451753,-0.71826171875,-0.321533203125,0.438232421875,1021,853,904,555,777,0,0,0,0
C,-0.5317798333248815,0.8529124018901744,-0.35803618690271444,-0.13543462201428225,-0.8525697400358817,-0.17388398353677856,-0.685546875,-0.34326171875,0.418701171875,1023,857,910,551,771,0,0,0,0
C,-0.5561142052655054,0.8832551933654603,-0.3609218411045525,-0.7155872937700075,-0.33348577057023276,-0.265487036971893,-0.681884765625,-0.347412109375,0.4345703125,1023,849,905,556,781,0,0,0,0
C,-0.577116799034138,0.9195063814533455,-0.35989046529688745,-0.44841172125092355,0.22376613782671376,0.1314595279136031,-0.701904296875,-0.34228515625,0.431884765625,1023,851,907,553,775,0,0,0,0
C,-0.6040628497908112,0.9391479619956445,-0.35815545236869956,-1.0972666830829847,-1.4632567629366449,0.18489464241741993,-0.703125,-0.32958984375,0.4423828125,1021,857,910,552,775,0,0,0,0
C,-0.6268071694170078,0.9725554277050273,-0.3717512100717119,-0.692686530411229,-0.08921096140992744,-1.3341893270482288,-0.702880859375,-0.319580078125,0.45654296875,1019,859,909,554,780,0,0,0,0
C,-0.622300152390556,1.0016013199438203,-0.39368731872465645,1.99433637035213,-0.5395926407992404,-2.1738839835367787,-0.69580078125,-0.3037109375,0.443115234375,1021,855,907,556,774,0,0,0,0
C,-0.6656461246339738,1.0336205228060396,-0.3882858283744757,-2.7537552327013053,-0.23424912934885875,0.5665740317303971,-0.696044921875,-0.323974609375,0.441650390625,1019,858,910,556,775,0,0,0,0
C,-0.6815813739918201,1.0813305002819338,-0.40469198546209784,0.09357301157350395,1.3917050691244237,-1.5937313117810532,-0.6865234375,-0.3359375,0.43359375,1023,857,908,557,782,0,0,0,0
C,-0.6854252142750648,1.0948140635264776,-0.4273228398277025,1.2233440039399162,-2.066310198051149,-2.2578534491856335,-0.69970703125,-0.319580078125,0.437255859375,1023,855,908,555,775,0,0,0,0
C,-0.7242947491969217,1.1094110433802469,-0.4313404434002809,-2.3262743166707707,-1.9823407324022937,-0.3952580293383053,-0.698974609375,-0.31640625,0.443115234375,1022,857,907,556,780,0,0,0,0
C,-0.7326158460549985,1.1512530525472149,-0.4490693914039138,0.8187638512681605,0.7886516340099199,-1.731135891933725,-0.689208984375,-0.327392578125,0.44140625,1023,853,912,556,771,0,0,0,0
C,-0.7604452139783571,1.1871438501349172,-0.4723696408905226,-1.2041369120906182,0.16269743553663743,-2.296021388116931,-0.704345703125,-0.313720703125,0.43310546875,1023,855,909,557,775,0,0,0,0
C,-0.7918908968004691,1.2153938948549712,-0.4675086825217154,-1.5094804235409995,-0.5853941675167976,0.5131389172265801,-0.70361328125,-0.341552734375,0.437255859375,1021,854,909,554,776,0,0,0,0
C,-0.8000316018561112,1.2518773835404708,-0.48092987346526667,0.8416646146269391,0.25430048897175195,-1.3036549759031908,-0.694580078125,-0.332763671875,0.437744140625,1021,854,910,555,777,0,0,0,0
C,-0.8189643383257809,1.2779538443163119,-0.4934428833366479,-0.28047278995321356,-0.8067682133183244,-1.2273190980405952,-0.689208984375,-0.320068359375,0.444091796875,1021,857,909,556,776,0,0,0,0
C,-0.8459041668285762,1.3156699356927324,-0.49965333714416477,-1.0514651563654271,0.36880430576564505,-0.5784641362085343,-0.693115234375,-0.33251953125,0.454345703125,1021,856,911,554,774,0,0,0,0
C,-0.8564243476468029,1.3663511224520628,-0.5134119602843225,0.6660920955429697,1.704682168361065,-1.3112885636894502,-0.68701171875,-0.34375,0.42578125,1022,858,919,555,777,0,0,0,0
C,-0.8823299627800733,1.4085839577687893,-0.5175659913761983,-0.9980300418616105,0.7962852217961794,-0.3647236781932671,-0.7001953125,-0.324462890625,0.42578125,1022,847,897,549,769,0,0,0,0
C,-0.9067078462621713,1.448586445726351,-0.526969959981827,-0.8300911105639005,0.5825447637809122,-0.8914412354451755,-0.697998046875,-0.323974609375,0.4345703125,1022,854,907,555,773,0,0,0,0
C,-0.9170013832517366,1.4916257075094361,-0.5515630613230748,0.6508249199704506,0.9260562141625915,-2.4028916171245647,-0.698486328125,-0.332275390625,0.4326171875,1021,853,910,555,777,0,0,0,0
C,-0.9468341523619321,1.5160944215626981,-0.5576231911095761,-1.3491750800295494,-0.9594399690435153,-0.5784641362085343,-0.687744140625,-0.327392578125,0.43115234375,1022,853,912,556,776,0,0,0,0
C,-0.9692639007126944,1.5288512767041145,-0.5628906666939032,-0.5705491258310761,-2.112111724768706,-0.5173954339184579,-0.69970703125,-0.34326171875,0.4443359375,1023,856,912,553,775,0,0,0,0
C,-0.9881391150088007,1.5584027665522282,-0.5808677497684117,-0.2423048510219159,-0.4403559995778664,-1.7616702430787632,-0.69873046875,-0.32763671875,0.435546875,1022,855,907,550,769,0,0,0,0
C,-1.009259694731993,1.5717278199640448,-0.5995464268215812,-0.5094804235409999,-2.081577373623668,-1.8609068843001373,-0.697265625,-0.316162109375,0.450927734375,1022,857,908,555,775,0,0,0,0
C,-1.0365469770795193,1.6092934140888637,-0.6158522546938832,-1.0667323319379465,0.36880430576564505,-1.5784641362085343,-0.692138671875,-0.32958984375,0.439453125,1022,859,910,556,776,0,0,0,0
C,-1.046228989414514,1.66132832421824,-0.6388487188965281,0.727160797833046,1.8344531607274772,-2.219685510254336,-0.70068359375,-0.3369140625,0.436767578125,1022,859,910,558,778,0,0,0,0
C,-1.0585442733198185,1.6969767983296313,-0.6403342571157029,0.41418369859640475,0.16269743553663743,-0.09754810567418314,-0.7001953125,-0.33935546875,0.41162109375,1022,860,913,553,774,0,0,0,0
C,-1.0822344899329865,1.719508771386499,-0.6482413953888573,-0.6850529426249693,-1.1273789003412251,-0.7616702430787632,-0.702880859375,-0.345458984375,0.424560546875,1023,859,909,556,780,0,0,0,0
C,-1.084665232755197,1.7543438606092818,-0.6618435864694484,1.3683821718788476,0.07109438210152294,-1.3112885636894502,-0.6962890625,-0.3203125,0.435791015625,1022,850,910,551,774,0,0,0,0
C,-1.1294807512169234,1.7757257895067116,-0.6670368884712206,-2.891159812853977,-1.2876842438526754,-0.49449467055967933,-0.70166015625,-0.32373046875,0.443603515625,1021,854,908,557,774,0,0,0,0
C,-1.1415254979298184,1.8139901236104934,-0.6959910267444169,0.6126569810391528,0.5214760614908359,-2.8303725331550993,-0.688232421875,-0.355224609375,0.464599609375,1021,860,911,561,780,0,0,0,0
C,-1.1611984562694402,1.8585774192899551,-0.7001441723830196,-0.3262743166707709,1.055827206529004,-0.34182291483448846,-0.691162109375,-0.33203125,0.447021484375,1021,853,906,552,769,0,0,0,0
C,-1.1866525304804278,1.899111364551343,-0.7006845079148876,-0.9980300418616105,0.6054455271396908,0.00932212333345045,-0.6904296875,-0.31201171875,0.443115234375,1023,850,907,552,770,0,0,0,0
C,-1.2225588915121526,1.9393352916131639,-0.7089030636381903,-1.952228515144053,0.6207127027122099,-0.7540366552925037,-0.6904296875,-0.32763671875,0.441162109375,1022,854,905,552,771,0,0,0,0
C,-1.2367306073671647,1.9659609706357866,-0.7336474188042471,0.2844127062299925,-0.6998979843106908,-2.433425968269603,-0.694091796875,-0.3310546875,0.44140625,1023,848,902,555,767,0,0,0,0
C,-1.285970608104463,2.014987772364906,-0.7276328894292697,-3.3720758433883278,1.4527737714145001,0.6887114363105498,-0.6884765625,-0.31787109375,0.454833984375,1021,857,904,555,770,0,0,0,0
C,-1.3410081594334147,2.0831138242107383,-0.7249554584033371,-3.8453582861364195,3.4146058324832023,0.4062686882189466,-0.678955078125,-0.33642578125,0.46044921875,1022,854,908,552,772,0,0,0,0
C,-1.3463469443581177,2.1529384269238987,-0.7418305909003675,1.208076828367397,3.635979878284729,-1.5402961972772364,-0.6943359375,-0.346923828125,0.433837890625,1021,853,911,555,774,0,0,0,0
C,-1.3532013349192036,2.198800443901843,-0.7650950930360938,1.0325043092834276,1.2313997256129734,-2.2349526858268547,-0.707275390625,-0.340576171875,0.436279296875,1023,855,912,550,770,0,0,0,0
C,-1.34921905340631,2.2613236125887313,-0.7773033058758254,2.0783058360009847,2.8726210996587747,-1.0899145178879235,-0.702392578125,-0.3388671875,0.436279296875,1021,851,910,549,774,0,0,0,0
C,-1.3781881167259111,2.289393529154476,-0.7746040497610076,-1.3949766067471066,-0.6617300453793931,0.31466563478383214,-0.712890625,-0.314208984375,0.425537109375,1022,844,908,553,775,0,0,0,0
C,-1.4407341048564417,2.3288761250430685,-0.7622866015289854,-4.746121644915045,0.4756745347732786,1.3070320469975727,-0.70556640625,-0.322021484375,0.42578125,1019,836,899,550,771,0,0,0,0
C,-1.447716132840716,2.36145191233138,-0.7858187197956369,1.0172371337109085,-0.09684454919618699,-2.2883878003306717,-0.696044921875,-0.332763671875,0.431640625,1021,844,902,549,769,0,0,0,0
C,-1.4619327423890283,2.3970494760719845,-0.8096623211738654,0.2844127062299925,0.20086537446793515,-2.3112885636894505,-0.69921875,-0.331298828125,0.435546875,1022,844,915,551,777,0,0,0,0
C,-1.499547760572054,2.4306111641599712,-0.8013499243665941,-2.089633095296725,-0.03577584690611066,0.9024518943258169,-0.697998046875,-0.35546875,0.432861328125,1016,835,905,551,768,0,0,0,0
C,-1.517060801601647,2.4558106494987504,-0.8092015126996784,-0.10490027086924414,-0.8754705033946603,-0.7387694797199846,-0.701171875,-0.333740234375,0.422607421875,1023,840,911,549,771,0,0,0,0
C,-1.500473141282097,2.489486212057945,-0.8277965975499912,3.307313469588771,-0.020508671333591577,-1.7922045942238014,-0.7060546875,-0.3251953125,0.4228515625,1023,840,909,552,775,0,0,0,0
C,-1.5391263157610975,2.5098685306694057,-0.815708124648735,-2.3720758433883278,-1.4403559995778663,1.2383297569212368,-0.700439453125,-0.317138671875,0.430908203125,1021,838,912,545,770,0,0,0,0
C,-1.5575296929106945,2.551024239495731,-0.8191212389089703,-0.20413691209061813,0.7123157561473245,-0.25021986139937397,-0.695068359375,-0.3330078125,0.441650390625,1022,844,909,553,772,0,0,0,0
C,-1.5490014676212038,2.590342319593081,-0.8240516215162812,2.421817286382664,0.49857529813205725,-0.41052520491082434,-0.70166015625,-0.318115234375,0.428466796875,1022,843,910,551,775,0,0,0,0
C,-1.5866178801497386,2.596594937582435,-0.823571623269035,-2.120167446441763,-2.7762338621732865,0.04749006226474817,-0.703857421875,-0.342529296875,0.435791015625,1021,835,905,550,774,0,0,0,0
C,-1.5595584811581886,2.6497581728705213,-0.8430664765787362,4.398916523023885,1.9489569775213702,-1.8227389453688396,-0.69140625,-0.3271484375,0.441162109375,1021,841,910,549,779,0,0,0,0
C,-1.5834591566102871,2.681426182536849,-0.8425107792106528,-0.9140605762127555,-0.31058500721145416,0.11619235234108405,-0.7158203125,-0.307861328125,0.43212890625,1022,846,909,551,772,0,0,0,0
C,-1.6054044312045488,2.7224361217149835,-0.8575919480703522,-0.5094804235409999,0.7275829317198436,-1.4105252049108243,-0.6962890625,-0.33154296875,0.427734375,1022,838,906,549,771,0,0,0,0
C,-1.6119611868037664,2.7510783238936063,-0.8756865036263674,1.0248707214971682,-0.5090582896542023,-1.746403067506244,-0.705322265625,-0.3310546875,0.43701171875,1023,847,908,553,772,0,0,0,0
C,-1.6628610892177171,2.7751921947835116,-0.8918545111074667,-3.387343018960847,-0.9518063812572557,-1.5631969606360152,-0.698974609375,-0.33544921875,0.4296875,1021,845,911,549,774,0,0,0,0
C,-1.6810260275311146,2.7943985555768918,-0.9083195447150878,-0.1278010342280227,-1.4479895873641258,-1.6089984873535723,-0.69970703125,-0.332275390625,0.4423828125,1021,843,911,547,765,0,0,0,0
C,-1.6742440616221352,2.8182518270670642,-0.9198252027386546,2.391282935237626,-0.9747071446160344,-1.0975481056741831,-0.697509765625,-0.343017578125,0.437255859375,1016,847,906,551,779,0,0,0,0
C,-1.707733041256342,2.8457515798742388,-0.9255114028770474,-1.7537552327013053,-0.6693636331656526,-0.5097618461321984,-0.69873046875,-0.32177734375,0.443603515625,1023,843,910,553,772,0,0,0,0
C,-1.7149437721993803,2.886445404063301,-0.9391814783918248,0.9485348436345726,0.6894149927885458,-1.265487036971893,-0.703369140625,-0.332275390625,0.43798828125,1022,839,914,546,772,0,0,0,0
C,-1.7512682968718776,2.897537959373433,-0.9380222439318169,-2.0972666830829843,-2.3411193583564924,0.12382594012734358,-0.70703125,-0.3193359375,0.43017578125,1023,836,912,546,776,0,0,0,0
C,-1.7437503377817634,2.925520006739982,-0.9503340354456229,2.429450874168924,-0.5777605797305382,-1.166250395750519,-0.691650390625,-0.330322265625,0.445556640625,1021,838,910,551,773,0,0,0,0
C,-1.7583563835789666,2.950034024358027,-0.9657244775102951,0.1699088894360994,-0.9441727934709961,-1.4868610827734197,-0.690673828125,-0.314697265625,0.445068359375,1021,838,912,545,769,0,0,0,0
C,-1.7875278626100652,2.986826761032701,-0.9650033187333652,-1.34154149224329,0.24666690118549242,0.16199387905864132,-0.688720703125,-0.3203125,0.440185546875,1021,842,911,543,772,0,0,0,0
C,-1.8150625415559047,3.0314984022042846,-0.9822342155169477,-1.0438315685791677,1.1092623210328207,-1.6013648995673129,-0.717041015625,-0.34326171875,0.430419921875,1023,841,911,551,771,0,0,0,0
C,-1.8175268001880442,3.057959448067288,-1.0072876305417913,1.4752524008864811,-0.6998979843106908,-2.4410595560558623,-0.705322265625,-0.330322265625,0.43359375,1021,840,908,549,767,0,0,0,0
C,-1.8576095320709822,3.0814259869746956,-1.0145996456300863,-2.3720758433883278,-1.0510430224786298,-0.6777007774299084,-0.69970703125,-0.329833984375,0.453369140625,1021,840,909,550,771,0,0,0,0
C,-1.887022359288584,3.1229253541604796,-1.0276721515795706,-1.2041369120906182,0.8039188095824389,-1.1891511591092976,-0.693359375,-0.34375,0.431640625,1019,844,909,550,773,0,0,0,0
C,-1.8961791278460385,3.145597427001815,-1.0608125786685347,0.8645653779857176,-1.0434094346923701,-3.2578534491856335,-0.7041015625,-0.33251953125,0.428955078125,1021,838,907,543,770,0,0,0,0
C,-1.9158957312170006,3.1769664963961604,-1.074151572381559,-0.272839202166954,-0.2266155415625992,-1.250219861399374,-0.69873046875,-0.33642578125,0.43896484375,1021,840,907,547,772,0,0,0,0
C,-1.9478523305869708,3.201509445146633,-1.0768793967722876,-1.5400147746860378,-0.9365392056847366,-0.21205192246807625,-0.683349609375,-0.332763671875,0.438232421875,1021,841,909,554,773,0,0,0,0
C,-1.9466514286955643,3.2437565160516253,-1.0955474813091806,1.8187638512681605,0.8649875118725153,-1.746403067506244,-0.695068359375,-0.327392578125,0.4482421875,1023,836,908,551,770,0,0,0,0
C,-1.9770051765173835,3.2645420875456104,-1.1132250391628533,-1.3033735533119923,-1.2647834804938969,-1.715868716361206,-0.6962890625,-0.3369140625,0.442626953125,1023,836,910,550,776,0,0,0,0
C,-1.9958533169704742,3.2998927386431234,-1.1316223602512208,-0.16596897315932047,0.18559819889541604,-1.7387694797199846,-0.69384765625,-0.33154296875,0.44287109375,1022,844,910,551,773,0,0,0,0
C,-2.0261670203669606,3.340356945065255,-1.1364447333715897,-1.387343018960847,0.6512470538572481,-0.3647236781932671,-0.697021484375,-0.333740234375,0.447265625,1021,839,901,547,772,0,0,0,0
C,-2.055790950993875,3.361689678576784,-1.1405196975058416,-1.3262743166707707,-1.2647834804938969,-0.35709009040700757,-0.696044921875,-0.332275390625,0.422119140625,1023,839,907,549,769,0,0,0,0
C,-2.0573438222339826,3.402390172067899,-1.1596627082973827,1.559221866535336,0.719949343933584,-1.7922045942238014,-0.695068359375,-0.32958984375,0.446533203125,1023,846,912,550,775,0,0,0,0
C,-2.0842891565570087,3.435491498780993,-1.1729431907623864,-1.0438315685791677,-0.07394378583740836,-1.234952685826855,-0.690185546875,-0.320068359375,0.44189453125,1023,844,903,544,773,0,0,0,0
C,-2.1029414950690466,3.4752075517410077,-1.1838892269362717,-0.20413691209061813,0.5901783515671718,-0.9754107010940305,-0.697998046875,-0.329345703125,0.4384765625,1021,843,907,547,772,0,0,0,0
C,-2.123147518693668,3.4985667587922995,-1.2020192159678407,-0.257572026594435,-0.9899743201885535,-1.746403067506244,-0.697509765625,-0.343017578125,0.429931640625,1021,842,909,545,774,0,0,0,0
C,-2.1422995308506625,3.5326980240103167,-1.2126024507475426,-0.18886973651809913,0.06346079431526339,-0.9525099377352519,-0.69287109375,-0.343017578125,0.439453125,1023,837,904,544,768,0,0,0,0
C,-2.159698671404606,3.5601288848105983,-1.212660419021604,-0.1125338586555037,-0.6617300453793931,0.0703908256235268,-0.702392578125,-0.33935546875,0.44970703125,1023,844,908,549,770,0,0,0,0
C,-2.1629850850574157,3.5955454956574577,-1.2232818746613618,1.3683821718788476,0.17796461110915654,-0.9525099377352519,-0.69189453125,-0.335205078125,0.441650390625,1023,847,911,551,776,0,0,0,0
C,-2.1853775063659353,3.6334167828964823,-1.229243472371532,-0.6010834769761143,0.3917050691244237,-0.4792274949871602,-0.69287109375,-0.328369140625,0.43994140625,1021,838,907,544,769,0,0,0,0
C,-2.19768261171437,3.667909044008039,-1.2490690468360048,0.4676188131002215,0.09399514546030155,-1.8761740598726564,-0.696533203125,-0.3232421875,0.4306640625,1023,841,912,545,774,0,0,0,0
C,-2.201819779813134,3.704111267118984,-1.2729067691195408,1.3531149963063283,0.30010201568930917,-2.265487036971893,-0.69287109375,-0.33154296875,0.44580078125,1023,835,911,550,769,0,0,0,0
C,-2.228051268998731,3.7350800915192472,-1.276297062826178,-0.9598621029303128,-0.28768424385267555,-0.2425862736131144,-0.696044921875,-0.339599609375,0.438720703125,1022,835,905,543,771,0,0,0,0
C,-2.243019360828277,3.770901212067174,-1.2825611347418797,0.1851760650086185,0.2084989622541947,-0.5097618461321984,-0.69091796875,-0.337158203125,0.4404296875,1023,834,908,554,774,0,0,0,0
C,-2.2502488495917166,3.810518516997438,-1.2923798835724758,0.9256340802757941,0.5749111759946527,-0.8532732965138778,-0.69775390625,-0.32666015625,0.43603515625,1022,837,910,547,772,0,0,0,0
C,-2.275584811843068,3.833103636953611,-1.2951327501400218,-0.906426988426496,-1.1426460759137442,-0.21205192246807625,-0.692138671875,-0.330078125,0.451904296875,1022,833,905,546,770,0,0,0,0
C,-2.2914234177483523,3.8701913237855603,-1.3063194633555555,0.06303866042846579,0.32300277904808783,-0.998311464452809,-0.6982421875,-0.32421875,0.44580078125,1022,835,912,550,769,0,0,0,0
D,-0.02402041730703689,0.015678848798940465,-0.008791762291714349,-1.4163999015020927,-2.0827734196362613,-0.8788475744890416,-0.908935546875,-0.245361328125,0.050537109375,849,571,1022,1020,1023,0,0,0,0
D,0.003051163069953951,0.08974426700512272,0.00860148389873606,3.8278749076582126,3.7950891757835867,1.7394730361979813,-0.9033203125,-0.28076171875,0.047607421875,845,574,1023,1023,1019,0,0,0,0
D,0.013823216228502853,0.12834290167327755,0.006289955561366185,2.056882541245999,0.2073029162416014,-0.22999261265698068,-0.91796875,-0.24609375,0.025634765625,849,572,1023,1021,1023,0,0,0,0
D,0.048008791470013586,0.18516994042052085,0.007270504897489585,4.484363457276533,2.054631160516411,0.09825166215217973,-0.908203125,-0.266845703125,0.01806640625,839,566,1023,1022,1021,0,0,0,0
D,0.07690186732278118,0.2036169553535497,0.016912508172058124,3.8889436099482886,-1.800330671544658,0.9684806697857675,-0.918701171875,-0.252685546875,0.009033203125,846,568,1021,1023,1022,0,0,0,0
D,0.09616581394774515,0.18160994887594623,0.0021306965701186685,2.858409258803251,-5.869032961620994,-1.4666338340310265,-0.91064453125,-0.230224609375,0.02197265625,845,558,1021,1022,1021,0,0,0,0
D,0.11256148586080743,0.22288886913465777,0.006985813919394916,2.7439054420093574,0.5126464276919831,0.48756463925141635,-0.904052734375,-0.2763671875,0.057373046875,845,560,1021,1022,1022,0,0,0,0
D,0.1077009852379723,0.27524913222723757,0.005591990208155024,0.5148978084215714,1.5889823055545784,-0.13838955922186602,-0.906494140625,-0.24853515625,0.041015625,847,555,1023,1023,1021,0,0,0,0
D,0.09132721084629282,0.30579362159484375,0.004219938071722472,-0.6148731839448409,-0.586590213529391,-0.13075597143560658,-0.919921875,-0.258056640625,0.03857421875,845,558,1021,1022,1023,0,0,0,0
D,0.12412958198486343,0.35962091603920204,0.007327387460220167,4.324058113765083,1.749287649066029,0.31199212016744693,-0.900634765625,-0.259033203125,0.0341796875,843,553,1023,1023,1022,0,0,0,0
D,0.13559261851544968,0.3910942379209372,0.00839286447693772,2.1332184191085943,-0.502620747880536,0.11351883772469884,-0.91796875,-0.248291015625,0.020263671875,851,559,1023,1021,1022,0,0,0,0
D,0.1208558040919327,0.4111367604006439,0.0017836960627747303,-0.4545678404333904,-1.6400253280332078,-0.6498399409012554,-0.911376953125,-0.253662109375,0.034912109375,843,550,1023,1021,1022,0,0,0,0
D,0.10686700817623901,0.4362762495282266,0.010455222605936164,-0.42403348928835216,-1.136208534140078,0.876877616350653,-0.908203125,-0.243896484375,0.0341796875,844,553,1022,1019,1022,0,0,0,0
D,0.12950253163991704,0.47975353880373306,0.011989616873502503,3.3240581137650826,0.7187532979209907,0.15932036444225606,-0.9150390625,-0.267578125,0.027099609375,837,550,1022,1021,1023,0,0,0,0
D,0.1265824990665979,0.4795258166841395,0.006846868614296323,0.7668062053681362,-3.6552925036057267,-0.49716818517606454,-0.907470703125,-0.263427734375,0.019287109375,841,549,1021,1017,1019,0,0,0,0
D,0.12409468302508692,0.53085461788105,0.009986302845911649,0.8126077320856935,1.5050128399057234,0.3196257079537065,-0.9013671875,-0.26416015625,0.0400390625,850,546,1022,1022,1023,0,0,0,0
D,0.14407925238667868,0.566890772548752,0.011032393986732645,3.018714602314701,-0.0369718929187039,0.11351883772469884,-0.91259765625,-0.255859375,0.026123046875,850,560,1022,1023,1022,0,0,0,0
D,0.09987814472691536,0.5855721555149715,0.011252996004410093,-3.4163999015020927,-1.7774299081858795,0.037182959862103404,-0.911865234375,-0.2509765625,0.026123046875,843,551,1023,1021,1023,0,0,0,0
D,0.10784015649600148,0.6430899928580126,0.012473234229672713,1.8584092588032508,2.123333450592747,0.12878601329721795,-0.920166015625,-0.26953125,0.032958984375,846,549,1021,1023,1023,0,0,0,0
D,0.11723499232600977,0.6509567058541735,0.008099427959682904,1.9423787244521056,-2.8613993738347343,-0.4208323073134692,-0.911376953125,-0.249267578125,0.02099609375,843,549,1023,1021,1021,0,0,0,0
D,0.08108897366472283,0.6536042934267496,0.002484795871437956,-2.599606008372322,-3.380483343300383,-0.5429697118936219,-0.906494140625,-0.250732421875,0.030029296875,846,554,1021,1021,1023,0,0,0,0
D,0.12792654942064294,0.6955899655305082,0.002988196770812934,5.759172617581877,0.5737151299820595,0.06008372322088207,-0.907958984375,-0.269287109375,0.046142578125,840,549,1021,1022,1023,0,0,0,0
D,0.11641284551581059,0.7077763857365421,-0.006513719779789561,-0.1263235656242303,-2.4262848700179402,-0.9322826889928584,-0.91259765625,-0.253662109375,0.037841796875,839,551,1023,1021,1023,0,0,0,0
D,0.11486301711656667,0.744682184879606,-0.005209669426803042,0.9576459000246247,0.0775319238751892,0.14405318886973695,-0.908447265625,-0.27978515625,0.062255859375,839,547,1022,1023,1017,0,0,0,0
D,0.13233382005027933,0.7943491445186386,0.008499701648293684,2.7515390297956173,1.329440320821754,1.3806944102437828,-0.90869140625,-0.255126953125,0.036376953125,844,548,1021,1023,1019,0,0,0,0
D,0.12354044436123837,0.8318359371735332,0.017735502247931686,0.14848559468111322,0.11569986280648692,0.9379463186407293,-0.908447265625,-0.260009765625,0.021240234375,838,547,1023,1023,1023,0,0,0,0
D,0.12905553618206556,0.8536027930222363,0.022204583874338383,1.5606993351391285,-1.4644528089492383,0.46466387589263775,-0.91357421875,-0.254638671875,0.024169921875,847,548,1019,1023,1022,0,0,0,0
D,0.1494267150735308,0.8803785574444294,0.021264774566113257,3.0416153656734797,-0.9682696028423681,-0.0773208569317897,-0.90234375,-0.248046875,0.03564453125,847,547,1023,1021,1021,0,0,0,0
D,0.15863970181347234,0.9306863476117854,0.01869473042325692,1.9500123122383652,1.3905090231118304,-0.24525978822949956,-0.907958984375,-0.25537109375,0.035400390625,842,545,1022,1023,1022,0,0,0,0
D,0.18468675404777155,0.978193957581645,0.01541882208936118,3.70573750307806,1.130967038379006,-0.31396207830583545,-0.90576171875,-0.27392578125,0.037109375,842,549,1022,1021,1021,0,0,0,0
D,0.1849527407524407,1.0328089826101592,0.019104585705145578,1.0797833046047773,1.8332571147148837,0.3806944102437828,-0.9013671875,-0.262939453125,0.02734375,844,550,1021,1019,1022,0,0,0,0
D,0.18040315836516826,1.0936389915554046,0.02853647220795113,0.5148978084215714,2.436310549829388,0.9532134942132484,-0.912841796875,-0.246826171875,0.015625,840,545,1021,1022,1023,0,0,0,0
D,0.21403436379165822,1.1416673310282812,0.030821825502943608,4.400393991627678,1.1691349773103037,0.24328983009111105,-0.910400390625,-0.2607421875,0.022705078125,839,545,1023,1021,1023,0,0,0,0
D,0.20805677885968027,1.1868428494404182,0.02530214550987214,0.3927604038414185,0.863791465859922,-0.5353361241073622,-0.9130859375,-0.24462890625,0.0263671875,840,546,1021,1021,1021,0,0,0,0
D,0.22571655719335268,1.2184701415244386,0.02291581648459716,2.8660428465895103,-0.4568192211629787,-0.21472543708446157,-0.91015625,-0.275146484375,0.028076171875,843,551,1021,1023,1021,0,0,0,0
D,0.2292948883230954,1.2375448127986661,0.023084011552338815,1.3545924649101209,-1.7392619692545819,0.04481654764836296,-0.915283203125,-0.25,0.026611328125,837,542,1022,1022,1023,0,0,0,0
D,0.22471424733201437,1.2768159290431687,0.01776624961511012,0.4843634572765332,0.2607380307454182,-0.5124353607485836,-0.91064453125,-0.23095703125,0.03759765625,839,542,1023,1023,1022,0,0,0,0
D,0.2466934074110715,1.3219108806694697,0.018546393802504692,3.301157350406304,0.8943258170049602,0.09825166215217973,-0.90380859375,-0.27587890625,0.03271484375,843,546,1022,1023,1022,0,0,0,0
D,0.2720340466937888,1.339433336427942,0.01212195649767662,3.5377985717803497,-1.8995673127660322,-0.6116720019699577,-0.911865234375,-0.246826171875,0.026123046875,839,545,1021,1022,1021,0,0,0,0
D,0.2563296582929112,1.3714093879958726,-0.005403831133578578,-0.5309037182959861,-0.4568192211629787,-1.7261758187638507,-0.9111328125,-0.2490234375,0.03369140625,844,549,1023,1021,1022,0,0,0,0
D,0.30163822400542956,1.3670323656663075,-0.02783200984920124,5.598867274070426,-4.090407007422521,-2.1994582615119427,-0.915283203125,-0.254638671875,0.02734375,841,540,1022,1023,1022,0,0,0,0
D,0.31663265222607095,1.3513288064676587,-0.048979861959737955,2.575966510711648,-5.220177999788933,-2.062053681359271,-0.91552734375,-0.2578125,0.037109375,841,546,1023,1022,1023,0,0,0,0
D,0.35992673672476205,1.3332617506235236,-0.058568210226973956,5.461462693917754,-5.42628487001794,-0.9017483378478202,-0.890869140625,-0.273193359375,0.025390625,846,551,1021,1023,1021,0,0,0,0
D,0.3437797876356,1.328803886162634,-0.06372253211188506,-0.6148731839448409,-4.09804059520878,-0.4666338340310263,-0.876953125,-0.23681640625,0.046630859375,840,547,1021,1021,1021,0,0,0,0
D,0.36400463476083184,1.3641181823442203,-0.06947223790977505,3.0797833046047773,-0.10567418299503978,-0.5506032996798813,-0.91845703125,-0.26318359375,0.0517578125,840,546,1021,1021,1019,0,0,0,0
D,0.35825054464480405,1.4022885613587976,-0.05658749574279815,0.43856193055897585,0.1920357406690823,1.311992120167447,-0.900390625,-0.25830078125,0.05322265625,843,549,1021,1023,1023,0,0,0,0
D,0.35572695672596394,1.4745666532125592,-0.0439554295373773,0.7668062053681362,3.604249481127098,1.2661905934498896,-0.912353515625,-0.263427734375,0.044921875,841,545,1022,1023,1021,0,0,0,0
D,0.35627143656505983,1.4993442692506633,-0.05232513200219379,1.1255848313223347,-1.1591092974988566,-0.8025116966264463,-0.91943359375,-0.265380859375,0.022216796875,842,549,1015,1023,1023,0,0,0,0
D,0.35619048542865117,1.5138645009863771,-0.048687465666973816,0.9881802511696629,-2.189643648643895,0.4035951736025614,-0.892333984375,-0.24609375,0.016357421875,845,544,1023,1023,1023,0,0,0,0
D,0.3684462584411127,1.5902662325491765,-0.037492422644012015,2.2477222359024873,4.016463221585113,1.1211524255109584,-0.904541015625,-0.261474609375,0.052734375,833,544,1020,1023,1020,0,0,0,0
D,0.3368073731737515,1.6023926450558807,-0.05510935729793166,-2.164491504555528,-2.4568192211629785,-1.7185422309775913,-0.91455078125,-0.237060546875,0.03662109375,836,545,1023,1021,1022,0,0,0,0
D,0.36270998660514964,1.6626455813253338,-0.051691086424481496,3.713371090864319,2.4210433742568687,0.35779364688500415,-0.902099609375,-0.28271484375,0.044921875,836,541,1021,1021,1021,0,0,0,0
D,0.3450157198340641,1.7603836759603488,-0.02505723966542127,-0.7904457030288103,6.1615013895240445,2.6555035705491266,-0.899658203125,-0.261962890625,0.03271484375,839,546,1023,1021,1022,0,0,0,0
D,0.3398289372362348,1.793445419451613,-0.0247733203095845,0.43856193055897585,-0.34994899215534514,0.06008372322088207,-0.93408203125,-0.244384765625,0.02783203125,841,545,1023,1023,1021,0,0,0,0
D,0.3583227703895872,1.8383420309428733,-0.021612387528025013,2.8736764343757697,0.8561578780736625,0.34252647131248504,-0.900390625,-0.255859375,0.020751953125,835,547,1023,1023,1021,0,0,0,0
D,0.3459593825734608,1.9232339784175805,0.0022598702310621947,-0.3247968480669785,4.856157878073662,2.388327998030042,-0.91455078125,-0.247802734375,0.026123046875,836,549,1021,1023,1023,0,0,0,0
D,0.33343482645831146,1.9447807784948494,-0.003886844703375278,-0.2942624969219403,-1.5102543356667957,-0.5735040630386599,-0.918701171875,-0.23486328125,0.025146484375,838,544,1021,1023,1023,0,0,0,0
D,0.3337963546879001,2.033936414151691,0.01070571192107147,1.0797833046047773,5.306539557462975,1.4646638758926378,-0.899658203125,-0.271484375,0.041259765625,834,543,1021,1023,1022,0,0,0,0
D,0.319141212601022,2.1107790731663054,0.026294416733611357,-0.5003693671509479,4.0546311605164105,1.5715341049002713,-0.927978515625,-0.260009765625,0.033447265625,839,545,1021,1021,1022,0,0,0,0
D,0.31684379403818413,2.1679927582483876,0.03465794531374588,0.751539029795617,2.085165511661449,0.861610440778134,-0.896728515625,-0.2490234375,0.0224609375,835,545,1023,1021,1021,0,0,0,0
D,0.2432522152271515,2.1740352410758135,0.029866204857868724,-6.469835016005909,-3.0751398318500014,-0.42846589509972866,-0.92919921875,-0.220703125,-0.036865234375,808,536,1022,1021,1023,0,0,0,0
D,0.13491350035266664,2.207079200778776,0.026293054853900506,-10.011819748830337,-0.38811693108664286,-0.3215956660920951,-0.9287109375,-0.20361328125,-0.015625,812,536,1022,1021,1023,0,0,0,0
D,0.06125705035111661,2.2651136362762916,0.02286225573196148,-6.370598374784535,2.153867801737785,-0.306328490519576,-0.9365234375,-0.252197265625,-0.018310546875,807,539,1021,1021,1019,0,0,0,0
D,-0.13118773801533923,2.292775330227405,0.008187185534507759,-18.370598374784535,-0.9224680761248107,-1.4284658950997289,-0.947021484375,-0.209716796875,-0.033203125,812,541,1022,1023,1023,0,0,0,0
D,-0.33239512348014516,2.3160940133550896,-0.0054403299450916645,-18.904949519822704,-1.2583459387202307,-1.3139620783058354,-0.9208984375,-0.2978515625,-0.04150390625,815,541,1023,1023,1022,0,0,0,0
D,-0.3666586037573516,2.3594315735068654,0.004461696342322643,-2.599606008372322,0.6500510078446549,1.0295493720758437,-0.928955078125,-0.21923828125,-0.0517578125,809,537,1022,1023,1023,0,0,0,0
D,-0.7291078261609873,2.3007726220845504,-0.04882787516644982,-35.50036936715095,-9.556055862384353,-5.382664368382172,-0.96630859375,-0.136474609375,-0.050048828125,817,540,1021,1022,1022,0,0,0,0
D,-0.7517922401113588,2.3774206573064114,-0.05131335838207396,-0.7064762373799556,4.222570091814121,-0.13075597143560658,-0.88623046875,-0.3994140625,-0.034912109375,821,544,1023,1019,1023,0,0,0,0
D,-0.7693452199370501,2.4080951361002882,-0.06690951005839532,-0.9507510465402609,-0.6171245646744291,-1.5353361241073624,-0.941650390625,-0.187744140625,-0.039794921875,813,542,1021,1021,1022,0,0,0,0
D,-0.9419885168174148,2.4234091904571677,-0.08558916429200975,-15.981285397685298,-2.021704717346185,-1.8406796355577437,-0.89404296875,-0.30078125,-0.044189453125,814,545,1022,1019,1023,0,0,0,0
D,-0.779741131254032,2.5396936997544026,-0.02961909487703704,17.117951243536076,7.9401273437225175,5.7547402117705,-0.93017578125,-0.29296875,-0.037109375,816,544,1023,1022,1023,0,0,0,0
D,-0.8084444504672612,2.5617153104338746,0.0010651917695714335,-2.3247968480669785,-1.5560558623843528,3.075350898793401,-0.947021484375,-0.173583984375,-0.051025390625,812,542,1023,1021,1019,0,0,0,0
D,-0.8636945802454826,2.550194655395295,0.010411188637243987,-4.622506771731101,-4.823231434903437,0.9074119674956912,-0.92919921875,-0.23974609375,-0.05419921875,812,539,1022,1023,1022,0,0,0,0
D,-0.7993452592513448,2.613607872767039,0.03501327297892752,7.36222605269638,2.672951771203434,2.540999753755233,-0.918701171875,-0.262451171875,-0.044189453125,815,548,1023,1021,1021,0,0,0,0
D,-0.895455810581699,2.619956913134463,0.019893288847740744,-8.828613641960109,-3.0522390684912226,-1.520068948534843,-0.94921875,-0.182373046875,-0.04296875,813,545,1021,1023,1021,0,0,0,0
D,-1.105138770823487,2.600707549203559,0.020271798992247417,-19.851514405318888,-5.533155099025574,-0.0009849790691942584,-0.905517578125,-0.28076171875,-0.03955078125,814,543,1021,1021,1023,0,0,0,0
D,-1.0951596425998686,2.711529471958834,0.05791441456016385,1.9347451366658461,7.39814261089809,3.953213494213249,-0.916015625,-0.28173828125,-0.044921875,811,546,1023,1022,1022,0,0,0,0
D,-1.1482451165556071,2.7704344630732542,0.05381313447625741,-4.385865550357055,2.2302036796003804,-0.3215956660920951,-0.942626953125,-0.231689453125,-0.06103515625,816,549,1023,1021,1019,0,0,0,0
D,-1.2845644340890394,2.7474519213304154,0.03588271010870377,-12.538537306082246,-5.899567312766032,-1.8635803989165225,-0.924560546875,-0.25537109375,-0.075439453125,812,546,1023,1023,1023,0,0,0,0
D,-1.264465449377937,2.794238642229243,0.08002791386594689,2.957645900024625,0.9859288704400746,4.487564639251416,-0.9140625,-0.294921875,-0.060791015625,820,551,1021,1021,1023,0,0,0,0
D,-1.193259596776517,2.8539188524904486,0.09884269121769697,7.904210785520808,2.2531044429591587,1.9684806697857675,-0.9345703125,-0.222412109375,-0.049072265625,815,543,1021,1023,1021,0,0,0,0
D,-1.1673833995325247,2.877979262630118,0.08669015069085942,3.614134449642945,-1.2201779997889328,-1.191824673725683,-0.932861328125,-0.246337890625,-0.0556640625,811,538,1023,1023,1022,0,0,0,0
D,-1.029285243577341,2.953399632349761,0.116529371658633,14.759172617581877,3.871425053646182,3.1058852499384395,-0.908203125,-0.276611328125,-0.03564453125,819,536,1022,1021,1023,0,0,0,0
D,-0.8568754791747779,3.054721346748993,0.1572196419330188,17.835508495444472,6.375241847539312,4.205121891159814,-0.944091796875,-0.206298828125,-0.053466796875,809,537,1021,1021,1021,0,0,0,0
D,-0.8000910553967007,3.087466313057952,0.14247528347625266,6.713371090864319,-0.3575825799416047,-1.4284658950997289,-0.922119140625,-0.2412109375,-0.06298828125,808,539,1023,1023,1021,0,0,0,0
D,-0.6461541165684764,3.154222490583584,0.16956158211701353,16.133218419108594,2.9706616948675557,2.7852745629155384,-0.921875,-0.22265625,-0.05615234375,808,534,1021,1023,1023,0,0,0,0
D,-0.5702520502427081,3.2384740416967643,0.19381799355507695,8.331691701551343,4.72638688570725,2.518098990396455,-0.9375,-0.223876953125,-0.0625,811,530,1023,1022,1019,0,0,0,0
D,-0.3558030523269202,3.343382017951106,0.19176754795200554,22.446195518345235,6.848524290287403,-0.10022162029056836,-0.926513671875,-0.251708984375,-0.038330078125,808,536,1022,1022,1023,0,0,0,0
D,-0.2637676593745817,3.4071900358246734,0.17843211427889183,10.03398177788722,2.6882189467759527,-1.2757941393745378,-0.942626953125,-0.19189453125,-0.064453125,807,539,1023,1021,1022,0,0,0,0
D,-0.2255187778749256,3.451157556804783,0.18671158570465254,4.843142083230731,0.7721884124248075,0.8921447919231721,-0.9169921875,-0.271240234375,-0.066162109375,808,530,1022,1023,1022,0,0,0,0
D,-0.029572439993378247,3.527044623661885,0.18903256064419316,20.491997045062792,3.9248601681499986,0.28909135680866827,-0.939453125,-0.234375,-0.06640625,806,530,1021,1022,1023,0,0,0,0
D,-0.06263540092815652,3.552580631407241,0.17025498188943888,-2.401132725929574,-1.136208534140078,-1.8254124599852248,-0.938720703125,-0.201416015625,-0.05517578125,803,533,1023,1021,1021,0,0,0,0
D,-0.006276339253659088,3.5828444655209775,0.17416519817894444,6.598867274070426,-0.6171245646744291,0.4493967003201187,-0.93115234375,-0.253173828125,-0.055419921875,813,536,1022,1021,1023,0,0,0,0
D,0.04668811123448588,3.6269835492805034,0.177375613359049,6.148485594681113,0.7416540612797693,0.37306082245752326,-0.925048828125,-0.22021484375,-0.036376953125,804,534,1022,1023,1021,0,0,0,0
D,0.07207199454257428,3.6853039834417003,0.18444994227668363,3.4309283427727166,2.1767685650965634,0.7623737995567599,-0.92529296875,-0.23828125,-0.05810546875,809,535,1023,1022,1022,0,0,0,0
D,0.13029580093206644,3.7389788561253607,0.19050643315080218,6.652302388574243,1.695852534562212,0.6555035705491263,-0.928955078125,-0.220947265625,-0.069580078125,795,532,1022,1023,1023,0,0,0,0
D,0.24293510192760626,3.799894850901162,0.18262808255026064,12.293523762620044,2.4439441376156474,-0.7338094065501104,-0.919189453125,-0.248046875,-0.07763671875,801,531,1017,1023,1022,0,0,0,0
D,0.322252454451353,3.8471266271894153,0.20056266891995966,8.553065747352868,1.031730397157632,1.8310760896330958,-0.9384765625,-0.18896484375,-0.062255859375,800,530,1023,1022,1023,0,0,0,0
D,0.3981071740378527,3.884475849271316,0.20444145158635427,8.415661167200197,0.06226474830267015,0.44176311253385914,-0.93505859375,-0.218994140625,-0.05419921875,803,533,1023,1023,1023,0,0,0,0
D,0.47673160402434145,3.902859967784932,0.19499645664133264,8.804974144299434,-1.838498610475956,-0.8712139867027822,-0.93505859375,-0.22509765625,-0.056884765625,804,531,1019,1021,1022,0,0,0,0
D,0.4708378008546186,3.9214600597017517,0.16925606031323218,0.285890174833785,-1.869032961620994,-2.504801772962324,-0.939208984375,-0.17822265625,-0.046875,801,527,1023,1022,1022,0,0,0,0
D,0.5517227628263798,3.978555609492037,0.17114951553744182,9.064516129032258,2.06989833608893,0.2356562423048515,-0.9365234375,-0.255615234375,-0.04736328125,801,531,1021,1023,1021,0,0,0,0
D,0.5371741642353853,3.9992018337043445,0.15643007815102106,-0.5690716572272838,-1.6400253280332078,-1.3979315439546907,-0.937744140625,-0.200927734375,-0.07666015625,803,531,1021,1022,1023,0,0,0,0
D,0.5420293571014012,4.001583186848645,0.13600233174300688,1.6828367397192814,-3.403384106659162,-1.9322826889928584,-0.919677734375,-0.26953125,-0.05810546875,803,524,1023,1023,1021,0,0,0,0
D,0.6908514810460094,4.086798751510197,0.15773968203015298,15.52253139620783,4.856157878073662,2.1669539522285155,-0.93359375,-0.201904296875,-0.045166015625,801,532,1023,1019,1023,0,0,0,0
D,0.6212911603529189,4.120309754059385,0.13340086798270126,-6.027086924402855,-0.37284975551412375,-2.367397192809652,-0.936767578125,-0.192626953125,-0.04833984375,805,531,1022,1023,1022,0,0,0,0
D,0.5537391490728689,4.123616842945047,0.10795868086262987,-5.6683082984486575,-3.3575825799416044,-2.4360994828859885,-0.92578125,-0.230224609375,-0.05810546875,807,531,1023,1021,1023,0,0,0,0
D,0.4090395710099748,4.1479516021017595,0.07850419856311519,-13.439300664860871,-1.2736131142927498,-2.8635803989165227,-0.922119140625,-0.206298828125,-0.051513671875,795,532,1023,1021,1023,0,0,0,0
D,0.30067435515897173,4.179991378097913,0.060458333794359935,-9.668308298448657,-0.4339184578042001,-1.7185422309775913,-0.9296875,-0.267333984375,-0.05029296875,807,531,1021,1023,1023,0,0,0,0
D,0.2191400744245016,4.174848354726438,0.04335623436890123,-7.248460970204382,-4.212544412002673,-1.6269391775424766,-0.9365234375,-0.19921875,-0.054931640625,809,534,1022,1023,1021,0,0,0,0
D,0.14392643481856024,4.195220856932622,0.03737280691174848,-6.424033489288352,-1.586590213529391,-0.5124353607485836,-0.915283203125,-0.267822265625,-0.060546875,805,526,1021,1023,1023,0,0,0,0
D,0.05119868577625057,4.18421422565404,0.006638938450541457,-8.324796848066978,-4.807964259330918,-3.0009849790691945,-0.947265625,-0.18603515625,-0.0517578125,819,531,1023,1019,1021,0,0,0,0
D,-0.22264260946989362,4.167299690599695,-0.052262969076258776,-25.874415168677665,-5.296513877651528,-5.794878108840187,-0.905517578125,-0.27197265625,-0.04345703125,820,522,1023,1023,1023,0,0,0,0
D,-0.16326439865699052,4.2667338255199265,-0.01086681317862706,6.629401625215465,6.291272381890456,4.2203890667323325,-0.929443359375,-0.25537109375,-0.060791015625,823,535,1021,1015,1021,0,0,0,0
D,-0.31787229087107877,4.295355876661751,0.00861236170913833,-14.767544939670032,-0.8232314349034366,2.0066486087170654,-0.935302734375,-0.21435546875,-0.0673828125,828,534,1022,1021,1023,0,0,0,0
D,-0.45896627612793656,4.312298491795115,-0.010857988795853127,-12.912583107608963,-1.9148344883385513,-1.871213986702782,-0.915771484375,-0.266845703125,-0.0693359375,828,529,1021,1023,1021,0,0,0,0
D,-0.4517385752941966,4.3683304446813604,0.016706194773959165,1.4080275794139379,1.917226580363739,2.831076089633096,-0.92529296875,-0.226318359375,-0.05712890625,825,535,1023,1019,1022,0,0,0,0
D,-0.4710599959521437,4.404537006899807,0.016272767565907013,-0.9812853976852991,-0.029338305132444342,0.02954937207584385,-0.933349609375,-0.2431640625,-0.0732421875,835,534,1022,1023,1022,0,0,0,0
D,-0.4788544680270949,4.437498217212918,-0.003443353051043058,0.24008864811622788,-0.3575825799416047,-1.9017483378478202,-0.951904296875,-0.2255859375,-0.055908203125,825,532,1023,1023,1023,0,0,0,0
D,-0.5509966611060718,4.471177979006696,-0.025486566455883635,-6.080522038906674,-0.25834593872023065,-2.1231223836493474,-0.921875,-0.244140625,-0.060546875,827,533,1023,1023,1022,0,0,0,0
E,0.020199865207552143,-0.06177700685867204,-0.07695674286321322,2.8656418516702837,-9.863856012325792,-7.6945864556341474,-0.9072265625,-0.209228515625,0.11328125,1021,1022,1022,1023,1021,0,0,0,0
E,0.015726930406398422,-0.08747396100583801,-0.1252870376885605,0.5297639890748638,-6.222634638279992,-4.831991035786819,-0.8603515625,-0.231689453125,0.140380859375,1022,1023,1021,1022,1023,0,0,0,0
E,0.05890949060199165,-0.04227219201964637,-0.15647364068116992,5.277855592128299,0.8613348273688636,-3.1220673716646825,-0.897216796875,-0.236328125,0.145263671875,1023,1022,1023,1021,1019,0,0,0,0
E,0.01440480343278258,-0.07199435861786568,-0.17507196919626453,-3.477869598711396,-6.627214790951747,-1.8548917991455989,-0.89111328125,-0.237548828125,0.128173828125,1023,1022,1019,1022,1023,0,0,0,0
E,0.03801559752064683,-0.06462032459272515,-0.1917049947278001,3.415260172280971,-2.894390363470831,-1.6640521044891101,-0.876220703125,-0.2548828125,0.13134765625,1023,1023,1023,1023,1021,0,0,0,0
E,0.03336812700219294,-0.054378733165984135,-0.2035434617295828,0.4915960501435661,-2.6348483787380066,-1.183136073954759,-0.902099609375,-0.236083984375,0.123779296875,1021,1022,1023,1023,1023,0,0,0,0
E,-0.0061830387604969745,-0.09343962417686395,-0.2118840003649258,-2.920617690314449,-7.543245325302892,-0.83199103578682,-0.885009765625,-0.251953125,0.131591796875,1021,1023,1023,1022,1022,0,0,0,0
E,0.008071906685714529,-0.06611210254324264,-0.22361946420146528,2.3541914699908943,-0.9325583024021287,-1.1755024861684995,-0.888427734375,-0.2255859375,0.15966796875,1021,1023,1023,1021,1023,0,0,0,0
E,-0.0652100983297487,-0.08774297295754603,-0.24360235137601127,-6.393900133062541,-5.825688073394495,-1.99992996708453,-0.88671875,-0.226806640625,0.157958984375,1023,1019,1022,1021,1022,0,0,0,0
E,-0.11473899877919674,-0.11941334286496501,-0.2375400421646691,-3.8824497513831515,-6.795153722249457,0.5954898802437144,-0.8720703125,-0.25732421875,0.1416015625,1019,1022,1022,1023,1021,0,0,0,0
E,-0.13754957683067537,-0.10969050265662207,-0.23800202923078492,-1.3328314307724645,-2.688283493241823,-0.05336508158834663,-0.87890625,-0.22802734375,0.13427734375,1022,1021,1022,1023,1022,0,0,0,0
E,-0.2036707828851073,-0.09160461709918108,-0.25665127892720024,-5.645808530009106,-1.8409552489670142,-1.8701589747181178,-0.880859375,-0.234130859375,0.159912109375,1023,1023,1022,1023,1022,0,0,0,0
E,-0.24601204063296103,-0.110367184295297,-0.28727086895885723,-3.164892499474755,-5.489810210799075,-3.083899432733385,-0.880859375,-0.26171875,0.156494140625,1023,1022,1023,1021,1023,0,0,0,0
E,-0.30191519630764985,-0.06517776110945232,-0.27273038674845945,-4.630541354436587,0.8537012395826041,1.4580853000910428,-0.874755859375,-0.229736328125,0.16015625,1021,1022,1022,1023,1019,0,0,0,0
E,-0.35846287098065105,-0.00849262778052069,-0.2554485177595532,-4.516037537642694,2.052174522025352,1.7405280481826457,-0.87646484375,-0.27734375,0.152587890625,1021,1023,1023,1021,1023,0,0,0,0
E,-0.38621816596820574,-0.0027655896805675656,-0.25723946167751555,-1.8213810490930753,-3.0852300581273195,-0.19840324952727795,-0.88720703125,-0.232177734375,0.130859375,1023,1022,1023,1020,1021,0,0,0,0
E,-0.45060513423898946,-0.0063995687302888585,-0.2525376201939944,-5.477869598711396,-4.024161355837243,0.4428181245185236,-0.878662109375,-0.231689453125,0.127685546875,1022,1021,1023,1023,1022,0,0,0,0
E,-0.4622608067375765,0.008375727925023582,-0.25114423277111375,-0.21832761397857148,-2.1844666993486936,0.12220743749562282,-0.88427734375,-0.22998046875,0.148681640625,1022,1022,1023,1023,1021,0,0,0,0
E,-0.4906642997836779,-0.0030415902004868804,-0.26708853397793414,-2.012220743749564,-4.8180544856082355,-1.633517753344072,-0.89404296875,-0.201904296875,0.15625,1023,1021,1021,1023,1022,0,0,0,0
E,-0.513926332599462,0.030008879107298037,-0.27859335504754523,-1.2641291406961286,-0.31423769171510574,-1.1526017228097207,-0.865478515625,-0.254638671875,0.166259765625,1023,1021,1022,1023,1021,0,0,0,0
E,-0.5640370757519505,0.061607773048217296,-0.2934523327143468,-4.07328944603964,-0.4898102107990753,-1.4884795854051407,-0.88623046875,-0.22802734375,0.1650390625,1023,1021,1022,1019,1023,0,0,0,0
E,-0.7384190213662193,0.06601076941761082,-0.28177611235424926,-16.508403949856437,-3.2379018138525106,1.137474613068142,-0.886474609375,-0.226806640625,0.16552734375,1021,1023,1023,1021,1021,0,0,0,0
E,-0.7593455361890886,0.1368840311198925,-0.2649287885653456,-0.8061138735205562,3.5101897892009246,1.7328944603963863,-0.865966796875,-0.316162109375,0.16064453125,1022,1023,1021,1021,1022,0,0,0,0
E,-0.8435096307125718,0.13956219431573857,-0.263811502192212,-7.5465718887877316,-3.41347433293648,0.06877232299180602,-0.90283203125,-0.21533203125,0.145263671875,1021,1023,1021,1022,1023,0,0,0,0
E,-0.8850301605587544,0.137357294725532,-0.26090356950409843,-3.0732894460396403,-3.8485888367532737,0.23671125428951595,-0.8671875,-0.26025390625,0.1376953125,1022,1021,1023,1022,1023,0,0,0,0
E,-0.9026404041909863,0.17309267690994173,-0.2649628390028711,-0.8290146368793347,-0.08523005812731954,-0.4045101197562856,-0.882568359375,-0.2265625,0.15966796875,1022,1022,1022,1021,1023,0,0,0,0
E,-0.9637791177023604,0.1563476099549648,-0.2775716893792968,-5.256495552909869,-5.337138455073885,-1.343441417466209,-0.893798828125,-0.20947265625,0.15283203125,1022,1021,1023,1023,1023,0,0,0,0
E,-0.9972651036394979,0.1636477137539839,-0.29306712662686357,-2.3328314307724645,-2.8867567756845713,-1.5953498144127742,-0.8642578125,-0.24267578125,0.170166015625,1023,1023,1023,1021,1023,0,0,0,0
E,-1.0377352475906572,0.22404357752040335,-0.3049822110980065,-3.0809230338258997,2.403319560193291,-1.1449681350234613,-0.88232421875,-0.23486328125,0.162841796875,1023,1021,1023,1023,1022,0,0,0,0
E,-1.10537365775738,0.21409019403352764,-0.3242541351276094,-5.752678759016739,-4.604314027592968,-2.0075635548707895,-0.8798828125,-0.244873046875,0.15087890625,1023,1021,1023,1021,1022,0,0,0,0
E,-1.1076532390314786,0.26461999296034283,-0.32541609477248673,0.9114433783878408,1.4491210869108482,-0.0838994327333848,-0.85546875,-0.273193359375,0.162353515625,1021,1021,1022,1023,1021,0,0,0,0
E,-1.1690065781191834,0.2697037393549518,-0.33454427432469436,-5.23359478955109,-3.146298760417396,-0.9693956159394918,-0.904296875,-0.223876953125,0.158935546875,1023,1022,1021,1022,1023,0,0,0,0
E,-1.2299019306360979,0.27358277622437405,-0.32813170444764406,-5.027487919322082,-3.2531689894250295,0.5802227046711953,-0.8701171875,-0.258544921875,0.1611328125,1021,1021,1021,1022,1023,0,0,0,0
E,-1.234643075244746,0.35997485322895423,-0.31741625963649706,0.4915960501435661,4.960571468590238,1.1832761397856992,-0.878173828125,-0.237060546875,0.17431640625,1022,1023,1023,1022,1022,0,0,0,0
E,-1.303128270895236,0.3681014899298843,-0.31394950575678787,-6.035121507108343,-2.8867567756845713,0.2901463687933327,-0.89453125,-0.20068359375,0.15087890625,1023,1023,1021,1023,1022,0,0,0,0
E,-1.2942407734640688,0.4065534474787275,-0.3231558069801893,2.0030464318229555,0.2506478044681003,-0.9083269136494153,-0.86279296875,-0.267578125,0.14794921875,1023,1021,1023,1023,1021,0,0,0,0
E,-1.3487342922144736,0.44755302700455607,-0.32692676923744646,-4.523671125428953,0.44148749912458884,-0.3587085930387284,-0.88671875,-0.2265625,0.16064453125,1023,1022,1020,1022,1023,0,0,0,0
E,-1.420846318869432,0.44303779567045265,-0.33595803033580546,-6.24122837733735,-4.085230058127319,-0.9922963792982703,-0.88671875,-0.237060546875,0.161865234375,1022,1023,1023,1023,1022,0,0,0,0
E,-1.4225160691800307,0.5332567647985973,-0.33491848394529183,0.7816723860214285,5.357518033475734,0.2443448420757755,-0.868896484375,-0.229248046875,0.165283203125,1023,1020,1023,1020,1015,0,0,0,0
E,-1.4661558629905866,0.5614797350991312,-0.3261056615374979,-3.40916730863506,-0.8562224245395332,0.8702990405490579,-0.891357421875,-0.238037109375,0.140869140625,1023,1021,1022,1022,1022,0,0,0,0
E,-1.4947284201071662,0.5561123613947148,-0.34352900931151076,-1.874816163596892,-4.1462987604173955,-1.8396246235730795,-0.875,-0.234375,0.140380859375,1022,1023,1023,1023,1022,0,0,0,0
E,-1.5402534617865422,0.597370718812705,-0.3559843568470373,-3.5465718887877316,0.5101897892009247,-1.2213040128860566,-0.860595703125,-0.238037109375,0.15478515625,1019,1023,1023,1023,1018,0,0,0,0
E,-1.5476595522182652,0.6191668706395335,-0.36683506031646523,0.21678688983822259,-1.4516422718677775,-1.114433783878423,-0.8916015625,-0.234375,0.16259765625,1023,1023,1021,1021,1022,0,0,0,0
E,-1.596816816692589,0.6282151631077353,-0.3871284716174152,-3.9053505147419303,-2.688283493241823,-2.0915330205196443,-0.861083984375,-0.237060546875,0.157958984375,1023,1022,1023,1022,1021,0,0,0,0
E,-1.6108176539497154,0.6919851537634523,-0.39793635155029294,-0.3786329574900218,2.7620981861474894,-0.9922963792982703,-0.8642578125,-0.24365234375,0.17138671875,1023,1022,1019,1021,1023,0,0,0,0
E,-1.6708408383017972,0.6943872682786718,-0.40937634691206914,-5.08855662161216,-3.3982071573639607,-1.228937600672316,-0.867919921875,-0.216552734375,0.150390625,1023,1023,1023,1022,1022,0,0,0,0
E,-1.69708478001439,0.7395580779323878,-0.4147354174773987,-1.5694726521465103,0.8995027663001615,-0.49611317319140014,-0.863525390625,-0.253173828125,0.15234375,1023,1023,1022,1023,1023,0,0,0,0
E,-1.733406137714004,0.7681254257433685,-0.42319271427294786,-2.6229077666503273,-0.7646193711044188,-0.8548917991455985,-0.889892578125,-0.247802734375,0.158935546875,1022,1023,1021,1022,1023,0,0,0,0
E,-1.7854003144035024,0.7497488885964356,-0.44249163670867586,-4.256495552909869,-5.444008684081518,-2.083899432733385,-0.8642578125,-0.220458984375,0.156494140625,1021,1022,1019,1021,1023,0,0,0,0
E,-1.7842844464186893,0.8113124978611528,-0.454322210792295,1.109916660830589,2.540724140345963,-1.0915330205196443,-0.872314453125,-0.2392578125,0.162353515625,1021,1023,1021,1021,1021,0,0,0,0
E,-1.8740408308518792,0.8314000222535346,-0.47747885419720193,-8.012220743749564,-1.5814132642341896,-2.351075005252469,-0.888671875,-0.230224609375,0.16455078125,1023,1021,1023,1021,1023,0,0,0,0
E,-1.876687333476893,0.8655454515017905,-0.4917691491339045,0.8122067371664667,-0.16919952377617453,-1.4197772953288048,-0.859375,-0.254150390625,0.14501953125,1023,1021,1023,1022,1023,0,0,0,0
E,-1.9440329004633523,0.9238854536743953,-0.4978568004011441,-5.7603123468029995,2.1972126899642834,-0.5190139365501787,-0.888671875,-0.2392578125,0.16015625,1019,1023,1021,1023,1023,0,0,0,0
E,-1.9626700024640014,0.9435609679161465,-0.506172623910443,-0.7984802857342967,-1.6348483787380066,-0.8701589747181177,-0.880126953125,-0.259521484375,0.15380859375,1022,1022,1023,1023,1023,0,0,0,0
E,-1.9906666892707978,0.9808110550993886,-0.515291554606545,-1.859548988024373,0.09034246095665,-0.8930597380768962,-0.887939453125,-0.228759765625,0.15380859375,1023,1021,1023,1021,1022,0,0,0,0
E,-2.0845711654951633,0.974343387328212,-0.5338823432857057,-8.439701659780098,-4.24553540163877,-1.9922963792982706,-0.893310546875,-0.228759765625,0.156005859375,1022,1023,1023,1022,1023,0,0,0,0
E,-2.069149968933267,1.0048345051419272,-0.5565147185885009,2.5602983402199015,-0.5203445619441134,-2.2671055396036137,-0.8740234375,-0.239501953125,0.15771484375,1020,1023,1021,1023,1023,0,0,0,0
E,-2.13890308437383,1.0276043044955065,-0.5803479125767811,-5.943518453673228,-1.2837033405700677,-2.4121437075425454,-0.883544921875,-0.244873046875,0.162841796875,1021,1021,1022,1022,1022,0,0,0,0
E,-2.175438493397911,1.048869054899167,-0.5825080103689856,-2.5771062399327698,-1.4898102107990754,-0.2518383640310947,-0.86962890625,-0.261962890625,0.140869140625,1021,1021,1022,1022,1022,0,0,0,0
E,-2.198471689790236,1.0627386919007353,-0.5811573827016998,-1.2717627284823882,-2.2531689894250295,0.06877232299180602,-0.87841796875,-0.254638671875,0.142822265625,1022,1022,1022,1023,1023,0,0,0,0
E,-2.269720616728475,1.069839256155925,-0.5934420065171122,-6.363365781917503,-2.947825477974648,-1.3281742418936902,-0.841064453125,-0.177001953125,0.2685546875,1023,1023,1023,979,1021,0,1,0,0
E,-2.23800418385238,1.1363486997963643,-0.6156750114269407,3.9954128440366956,3.036907346452833,-2.0915330205196443,-0.83935546875,-0.1875,0.284912109375,1019,1021,1021,977,1019,0,1,0,0
E,-2.324304001215465,1.1661292698430081,-0.6291803897058774,-8.07328944603964,-0.7111842566006019,-1.3663421808249878,-0.865478515625,-0.1328125,0.283203125,1023,1021,1023,978,1022,0,1,0,0
E,-2.2837742008465245,1.2124178722468995,-0.6441647792336541,4.941977729532879,1.0063729953077951,-1.4426780586875831,-0.831298828125,-0.203857421875,0.279541015625,1023,1021,1023,977,1023,0,1,0,0
E,-2.245693167943428,1.3322554003426197,-0.6644582151521964,4.5526647524336425,8.342250857903215,-1.686952867847889,-0.829345703125,-0.1669921875,0.299072265625,1022,1023,1022,977,1023,0,1,0,0
E,-2.270926726770059,1.472617470130727,-0.7041223631500246,-1.8442818124518539,10.44912108691085,-3.5419146999089572,-0.860595703125,-0.14453125,0.29052734375,1021,1021,1021,978,1019,0,1,0,0
E,-2.3112071497314726,1.5342554257824088,-0.7123635929658737,-3.1954268506197927,2.502556201414665,-0.7022200434204077,-0.829345703125,-0.19091796875,0.2529296875,1021,1022,1023,974,1022,0,1,0,0
E,-2.2815911814778387,1.7329215598686583,-0.7265521186070606,3.819840324952726,16.220113453323062,-0.748021570137965,-0.837890625,-0.1953125,0.276123046875,1019,1022,1022,981,1023,0,1,0,0
E,-2.3069437835552353,1.9457356274902644,-0.7351870329226171,-1.8137474613068156,17.586525667063523,-0.13733454723720162,-0.8701171875,-0.171630859375,0.263916015625,1023,1019,1023,985,1023,0,1,0,0
E,-2.4015854277645463,2.1705053476074747,-0.7100262811950965,-8.966419217032007,18.624693605994818,3.3054135443658517,-0.87109375,-0.146484375,0.26123046875,1021,1023,1023,977,1022,0,1,0,0
E,-2.4751927600677734,2.4881093663995864,-0.7122062493718023,-6.584739827719029,28.044540934239095,1.0077036207017298,-0.837890625,-0.181884765625,0.234619140625,1015,1023,1023,977,1019,0,1,0,0
E,-2.5262289445456503,2.8863718300734234,-0.7244028638796615,-4.370999369703762,36.12851039988795,0.38938301001470677,-0.892333984375,-0.170166015625,0.222412109375,1019,1023,1023,975,1023,0,1,0,0
E,-2.5965326237973962,3.1314152882848294,-0.7314290216961405,-6.401533720848801,20.78499894950627,0.25961201764829456,-0.902099609375,-0.149658203125,0.175537109375,1023,1022,1021,979,1023,0,1,0,0
E,-2.6030164109600746,3.3856485759688466,-0.7954521162698737,0.46869528678478733,21.991105819735278,-5.358708593038728,-0.883056640625,-0.185546875,0.16455078125,1023,1023,1023,979,1021,0,1,0,0
