THUMB_FLEX,INDEX_FLEX,MIDDLE_FLEX,RING_FLEX,PINKY_FLEX,BACK_OF_HAND_GYR_X,BACK_OF_HAND_ACC_X,BACK_OF_HAND_GYR_Y,BACK_OF_HAND_ACC_Y,BACK_OF_HAND_GYR_Z,BACK_OF_HAND_ACC_Z,SIGN
254.81508075639857,1005.600195312707,1005.5031290176132,1004.4159257930175,1005.5516731383434,12565.619589340808,16300.325242764808,18008.44435817773,17204.24210421551,17814.595534890854,15486.57479127088,A
266.28435964517183,1005.5000001462807,1005.425013017868,1003.416153771778,1005.8000030525185,10730.690413390945,15957.783021490523,17425.28629594025,12887.178314817897,17633.70784727124,19685.491202816174,A
283.7157708632214,1005.500830230133,1005.2001602649968,1005.0075683724378,1005.5626953125542,18219.69551486255,17298.76054640933,16932.144996891722,16549.763836576785,15898.090975747677,18791.28672071574,A
273.4968890291017,1005.4125000838346,1005.4630859885987,1004.4517713878643,1005.409430894271,13594.892648620971,14283.418231420428,13291.638864232029,17061.770375432803,18173.424259243206,15532.983095615995,A
272.24794519818624,1005.5650390781617,1005.5037109852021,1004.4791088587062,1004.9221582653623,17330.463011749125,19581.931763417444,17831.310804744022,13033.058481064154,16408.50231012423,21640.578154931634,A
273.83354538187416,1005.5504425050867,1005.7000129722213,1004.552240052279,1005.5531402602946,14210.95712415154,14588.173422837775,13751.134696582358,17155.74519247601,17972.83970578901,14131.879627532497,A
277.4446905966726,1005.5000526906146,1005.3001587184335,1004.0378047943539,1005.5629058869712,18500.180933053238,14462.26573527774,18291.540929404,13623.680043207976,14846.852134121698,18494.603753036085,A
266.0531585087904,1005.5094024777576,1005.1003952204871,1004.6637426376556,1005.206449747369,13426.335698621497,13725.802716563581,13411.92914663266,19022.05218005197,18586.133247655118,17195.988874063976,A
268.80168071112917,1005.6000030518353,1005.7375122070932,1005.1508369454172,1005.3500031027634,16192.40543317934,16427.040159901717,20778.723578032826,15114.479359971552,16208.554709319898,16047.226176957596,A
267.50708414717735,1005.8507812619364,1005.55333633797,1005.0509808093493,1005.6000032549995,13024.653850608178,17060.411938574143,15810.472843133504,16514.983369417332,13269.171066118175,15679.41162501062,A
267.2660777815339,1004.900000017907,1004.9774047886191,1003.6281778569739,1004.3432739293427,12085.462851505446,15087.477863672839,19643.903375952905,13091.459940346173,16325.249282959776,17149.603988520154,A
266.96764648959504,1005.6095705151741,1005.4500032439994,1004.0824372434387,1005.351001038468,14887.169604010798,18853.585125241803,14162.167784228961,18504.35276835187,16585.62884564383,17910.731704547747,A
267.61740838978943,1005.7125122102598,1005.703137219899,1004.4266391889196,1005.5507815242092,16248.885907633037,13029.057235736878,19937.393938626123,16830.549241980432,15964.913286167313,17680.771098497342,A
260.82812878470816,1005.0335976364371,1004.5001480127839,1004.8030773177936,1005.300196409986,16536.40825786551,19293.694179948718,15216.557274310548,19395.242482200185,16609.743784090417,13800.128693783681,A
253.16583558513472,1005.3011383541113,1005.3502480179732,1004.2252489412749,1005.43751527246,13125.948919306325,18217.19255489944,16926.163223273637,16928.0381219668,17368.86685110299,13513.954305057337,A
249.63234454785237,1005.5000612385727,1005.0658234329621,1004.406715069852,1005.6023439408436,16260.71585799992,18327.503526206867,16372.813947437735,15341.40431833126,17101.189129938888,14781.25376684074,A
250.7029783850889,1005.5523590089917,1005.2001099109893,1004.550101141044,1005.2005859375176,21145.38855367604,13457.666198177476,19756.646994597417,14341.031407619977,15758.687460481207,14909.57835410933,A
250.47447592020131,1005.7031738758366,1005.5001251228308,1004.0049225100513,1005.1535187723155,10633.618809660222,13343.795031694288,17249.835944305585,15463.433520014796,19973.357999706175,19355.392152833072,A
247.88726884438657,1005.1750003397622,1005.4086067678679,1004.9508300975136,1005.3001954585527,15213.723582589912,17529.119808813455,16630.699103240247,11748.836759475085,14672.510716512901,17373.603897030807,A
247.7525013865889,1005.1399414213581,1003.1978548111574,1004.5142220801247,1004.2074485937812,15104.073243484887,18818.953825614954,14776.503525856093,15341.08631243712,17396.0344079531,15194.281056476812,A
249.31355692966304,1005.463525394002,1005.6507843040087,1004.964078572781,1004.8000007668082,13895.333442438796,17001.577913911944,15959.321041664207,16298.75304807691,13334.009076883493,15683.774077504917,A
181.6958332339337,1005.6500123501212,1005.2500488287463,1004.3626476650691,1005.6000009062042,16960.860084503252,15900.837358410548,18922.643474751436,17792.31049700373,17557.84925413992,15547.52601035206,A
174.49936443566065,1005.4639282286323,1005.6626984268581,1004.3004921686334,1005.6570434578034,18674.076338758998,16471.451502867138,14273.551704208905,13667.23223345518,14738.879172690857,14084.597944077095,A
170.1164194906777,1005.9000122070468,1005.3523437783415,1004.7378429537797,1005.9500000000155,14979.52359896691,15632.53034912935,15564.129814636777,19334.660191205236,14568.27223865408,16380.780598100164,A
172.6051592622727,1005.5032728225148,1005.8031738758242,1004.7259949509213,1005.6002565862767,15777.74611699158,19589.60430206119,12295.320237991826,17834.95501517327,15433.787075624132,16355.317738837159,A
171.42317732578712,1005.275782778924,1005.3886856079295,1004.7593849390923,1005.3504518511021,16725.68945945463,15613.214421247034,15795.2455088883,16417.086741050887,15449.139370707591,17495.993176216954,A
166.54994689938076,1005.5507822037741,1005.5041053773177,1004.5099750518988,1005.662548876616,18092.262006115812,15547.62164845011,15884.194291624206,17504.391186616805,14735.986443067868,13006.825946416688,A
164.61662698034814,1005.4658722043347,1005.2002107620428,1004.8039308585863,1005.6502199173159,14128.536188669645,15198.613308025451,10125.16582197367,18523.333978122904,18488.82773535772,15674.798140900171,A
164.1182293693226,1004.7502930209197,1005.3697418226113,1004.5506115515175,1005.3005890014881,19833.79883169494,15243.498446919722,17073.499661495982,15845.113104779302,15254.55288189917,16097.049777287553,A
163.86730815872565,1005.5500122696694,1005.3625001997267,1004.8250734597601,1005.2510346899547,16965.87003563732,17829.55786274721,16367.21681695669,17925.313899921315,15745.405297047831,17826.653612267546,A
163.49557641044817,1005.050817884526,1004.412707524415,1003.9325293325512,1005.4002016097462,14424.48393800628,16414.96871613674,11512.584836349932,14589.457935945858,17155.053296797203,18914.64648099139,A
163.18001326894236,1005.7031258106388,1005.4001963027791,1004.5257942715825,1004.7523445490918,15834.257716351576,14027.868744055682,15695.43287477183,18267.84458046227,20170.100510596392,15279.354259255682,A
162.69690780666582,1004.9289276145561,1005.3603515631246,1004.6535188228303,1005.5633310320484,16891.5289190787,18433.943097027197,15466.903970531766,18242.076289501834,16016.442117846153,13960.326861092482,A
162.39609394067642,1005.6508302690848,1005.6009788990292,1004.9179781824521,1005.1007820519569,23475.76939045327,15295.450084475622,14868.779785409886,15784.501442615034,14661.483311590902,21501.1727008698,A
162.1415038466509,1005.4502931745877,1005.5506349684832,1003.7112325925958,1005.5007845290627,15074.810201581084,17978.893565037673,18639.28119055964,13705.617252891892,12443.471665426428,15590.647672072571,A
162.19766007362608,1005.3507874049401,1005.35005192763,1003.5666606353759,1005.3000244141361,18884.869902346727,15913.63304792073,16400.191536039954,14775.50416842474,16014.932876890036,15846.23715682076,A
162.1976592898307,1005.4512207150617,1005.5500023007564,1004.7211065858767,1005.2376987599544,12921.500331686704,15775.54950937818,12246.36628780609,20849.19421249791,10843.689598952207,14553.41712865896,A
162.14995189686562,1005.6882812976994,1005.2159668171009,1004.3601199113052,1005.0096245680661,13817.385534744924,16092.259732563372,15732.333003872758,17121.709293467768,14993.464130273249,14640.926209794305,A
162.45232919455626,1005.1609865546382,1005.5013671876566,1004.7507967066313,1005.350024415056,18332.96373730284,18377.77056128137,15520.612712566985,16982.783139727406,17670.480535017385,17025.324984581857,A
162.30078119989722,1004.4221437537353,1005.4533211469922,1004.7032350689573,1005.3875000122631,16489.403184225994,13706.098500868398,13920.246010656305,15896.795287007923,5705.9846978686055,18545.284566195496,A
162.26269760420737,1005.3509775161913,1005.6000610828911,1004.4156428335397,1005.3500001463735,10340.875606929267,17134.158022882122,16311.570138882675,14736.294006264226,14077.609002063016,17043.56428051674,A
162.29921552245682,1005.2002445379106,1005.6507812991924,1004.5258492593359,1005.2626985073717,11209.018042877004,17307.883079653686,17730.208529732172,18612.31624777495,14469.805559147124,18452.257348664596,A
162.44706948610505,1005.5507814973893,1004.3000896933206,1004.4504051721112,1004.8013674289189,11322.774088043121,16700.7971289572,21430.509191134275,15113.948045381689,15350.706842545056,17893.37165658994,A
162.4124381518373,1005.7125002384807,1005.6000009060093,1004.8750664476826,1005.500000289195,8423.71500574273,17931.78065912359,22142.92642151929,12723.99405264736,16696.26363443539,16030.33509762347,A
164.08013936752477,1005.2031250171556,1005.4000091642392,1004.3536135929444,1005.1625030652565,11708.337127930248,16710.63830889963,17141.432152918318,15768.941045001062,15022.536248614091,14549.147936686792,A
163.2935841907497,1005.0265626915419,1004.5219512979132,1004.6023561970372,1005.0690918445858,20431.588779274032,15642.537877630579,13985.661338780244,16469.978016540103,15285.914842607055,14269.646341018059,A
163.14369799968705,1005.1625551225825,1005.2501955520056,1003.8537317635133,1004.9627655507724,8352.893512893143,14797.342556782043,12322.593832132332,15505.862700291624,15792.290334115236,16605.562917645504,A
162.6116600034199,1005.2000030549414,1004.9508520611282,1003.5164485201367,1005.4000497818163,14874.182368261896,12505.433846154476,21328.357186297308,17801.115836484692,12989.176222682721,17510.3399440122,A
162.88334654265662,1005.222281277394,1005.5156379705683,1004.565848401246,1004.9505875249113,11065.012580140152,16985.742496125724,14169.807360234456,18391.108429030428,18681.92295371244,16546.64755966456,A
165.46253662090598,1005.1533721946356,1005.6132816352107,1004.4128445271703,1005.4531586053005,8032.7800463124295,19062.995539534284,10834.300623196494,16122.16974572734,10864.522635665116,19070.42451954386,A
164.46665668866248,1004.975391440488,1005.4508301528937,1004.4541942596628,1005.2000000359185,18477.30560050173,15523.406626014734,14936.210128497632,17942.103582872303,15601.435198522242,15949.348583134157,A
164.2127634565063,1005.7625007630022,1005.3782716797848,1005.0039187857119,1005.5033691525732,11366.107563827954,15700.963790263286,12901.31014163987,14783.492997696496,15261.088360493712,18252.148109401292,A
163.91687726482672,1005.600005352699,1005.1000496448812,1004.3803718254169,1005.5031273016875,10686.287151429799,15844.329491242679,12149.694208358103,13257.110151184406,17685.80719130407,13568.215859870665,A
163.4340998848324,1005.3164184570702,1005.6000094056286,1004.500393071998,1005.4000368141144,11745.322520788475,17748.454008874785,14992.02185575775,13546.781218367634,16284.600620461302,19863.630782303895,A
162.84584459963912,1004.8500709656935,1005.005490166756,1004.2129646551617,1005.2252815785041,7368.304606670732,18251.97359479394,18124.93735237431,18560.185736944284,10926.31640614024,15959.426990415765,A
162.49999923259034,1005.8125122070933,1005.6507812500622,1004.251324848906,1005.6658211233249,8018.908930559733,13023.405845173073,21883.471694645854,20086.815039287023,12299.810523819644,17073.849502114044,A
855.9333365148871,749.3280536365446,612.3686440649939,941.8291774231832,568.029858971571,11894.367161764152,15348.489308199514,12514.735891973603,15003.14955933638,13576.60618477932,15498.099387881992,B
872.9453709177682,714.8376426721946,594.576857680071,915.4430093508981,549.8359371045215,14430.11917113214,12631.99080087031,17410.190749984762,18200.84396188314,19136.82815037018,16580.486824096104,B
859.6672381276436,711.757448562196,581.64794109122,899.3026249164292,533.8876168246164,15421.839809415484,17288.830749653345,11565.648452534228,12555.699522332045,11059.970781632455,13703.092374262333,B
857.0989572244565,709.3356230761883,572.6486897218468,889.896041847341,522.5124341325034,17202.572382448987,15282.368092131223,16887.3373974416,17737.865685853838,15600.80907451586,18882.721165471117,B
854.2499131777629,707.7993885220923,566.2466949930055,884.2916189310993,518.2565897619392,10867.986936496769,14714.12446805814,11556.473369354564,19921.392227337463,13733.238815827983,16892.773665054312,B
852.9859328575563,705.1140575720701,558.1732376387972,877.2935413291622,513.1388916371053,12001.284869740643,17318.93358448019,19284.079757039446,20663.484717811316,16874.218274617764,16515.883497091174,B
853.6833028912664,699.5433383829808,548.093744866271,870.2937246604776,511.0195031998084,14301.062285971091,17535.780781636084,16338.267973469905,18850.21757823784,13780.576315735301,14423.975628783297,B
852.3499895193243,695.9664072641294,544.580988803619,866.635985138111,509.2250082912715,12765.443956791494,19022.845402730396,18839.713145635178,15666.324869529013,15175.254260378642,14185.731486182875,B
852.6522949709477,695.266658323595,541.7852860492796,864.0823313954594,507.5486847093274,13346.289326611126,15101.579663709486,12098.210991335047,16847.35960778634,20058.594871615693,19119.075936636043,B
850.9524021713211,695.8166145712707,540.1263546904489,863.706444019506,507.03775640729054,13084.277847599718,12402.505402184384,14527.894836435657,17006.294340633478,14434.75874281619,13778.538298227464,B
849.764794389411,694.4854671293217,538.5667132694512,861.2632881829686,505.7803539927759,13176.680978122016,17363.071643216186,14946.964200344726,15644.067538099658,15005.341770118588,16291.272089444154,B
850.5589066333447,692.654294695188,537.7459277470987,859.7425711484332,503.58887974490807,20969.947658933503,14045.237400209235,20155.961885306708,16683.33222542439,14470.567797051292,14128.253002938902,B
848.4115730142146,692.6814707388321,537.0155859136744,859.5729607747502,503.0580384244853,15761.154569871103,15699.722717944236,12876.333018921056,12770.306920404038,17040.09230601305,19072.186626811912,B
845.8700825859644,691.9792675716168,535.0651061250721,857.9416691293922,501.9245294287266,15715.54086781281,16510.066268354203,14416.52108403712,15533.170473361195,14406.98544978751,14617.45622432893,B
840.8624348486426,666.8809973402289,533.4016797205907,858.6686481606782,502.01301218701883,18210.068565192323,17323.118165175445,14282.381982822262,15539.480814556873,16037.092063881573,15000.095761306991,B
838.3109892027671,652.0555989310168,528.6355670296758,855.3724013444789,501.4435765866634,18050.881085068842,15955.197594493036,19237.494381257133,19252.86668612506,14254.021586623916,12834.460649005498,B
715.9955297329192,184.03001225790817,154.43748678678293,2.9500000000000455,370.1347835227306,15951.188628873182,16528.817152828975,13701.532518071905,15018.674930408117,15738.811310625368,14718.180920296534,B
811.045806917052,251.5831816981276,156.75112665198168,331.91137639335597,455.4222396974712,13582.551143336354,14088.605873369766,18132.165060751166,13091.299619707337,18791.1253506429,18232.53198021641,B
791.0102186246936,232.4336467264548,177.04789489099136,2.9500000000000455,421.3401166348316,17709.398805325858,16837.65950640346,14969.89852235166,18388.617032172457,17613.506653718156,17194.760794646187,B
786.2730379816064,204.27515864509027,156.84559792802366,218.46174653867402,397.86460974734024,15683.86502674641,20466.437830947238,13776.369264827266,14809.320284452766,14266.171037895381,17849.451225568857,B
835.9664887154995,186.79578528309472,139.45077799138113,196.71739912741288,373.96271478294545,18006.779206712454,14808.9918568008,11977.107455841207,12901.59467831584,17543.097879745088,18241.62905006644,B
821.5267783213454,198.29507980208913,134.23014342014903,82.49999980327985,379.69590731921915,20613.85075666415,16603.635019900044,16103.96439496928,17725.266025446,19566.551160275987,18183.063097274084,B
776.8324031483569,173.07817888674762,118.98255132040808,2.9500000000000455,272.34977324430395,16488.143496934452,16367.287694579692,17230.39321254912,15992.959064423854,15885.832805207305,14355.220255425878,B
772.6119341287028,171.54999998411972,117.70097657535425,2.9500000000000455,269.83240444543617,15255.212758911342,16298.642655573374,12989.623101040112,14022.261981312633,17636.724349371914,15419.98469223668,B
769.9033888639841,170.77506176536235,116.86740139598824,2.9500000000000455,267.3325398530038,16328.65913907678,10098.292731711568,16302.900054781665,13338.046466909742,16164.794606286658,16136.098408424892,B
769.0767888047019,170.0572907160218,116.8675091343146,2.9500000000000455,265.94939859862535,17044.279987379614,18078.403619155502,13034.607521419777,14814.613822651354,14443.508117618587,16716.706993448115,B
769.0631332976957,169.99264626900612,115.88411463101957,2.9500000000000455,265.2666015632577,14330.419526547168,18580.62271981968,18228.277710080365,18576.134727448494,18363.65825395704,15838.493279812557,B
767.9595521484277,169.86666668157415,115.44681394024678,2.9500000000000455,264.0205721187787,15136.720860286145,17177.691745063225,17668.70888918102,16672.758026371805,17536.755098902966,12649.919460812785,B
767.6736099522733,169.4832959036117,114.79766850789488,2.9500000000000455,263.64817765549503,14279.56747935202,17241.0044004132,18002.8301779537,15650.860299521486,16265.563301708384,14506.126071085188,B
766.0061931729466,169.77068339086327,114.21276041666825,2.9500000000000455,265.858488988127,12897.412577252133,14590.530737671952,12196.598246462969,16755.06030960027,20424.082617391992,17485.596947625978,B
765.0473265501581,169.14524832567912,113.28625385061318,2.9500000000000455,264.3800092050968,17535.7727588902,14692.582271509189,19041.622242086112,15831.758161521866,16089.095300403973,16599.575829403413,B
766.6124058275587,169.56990248754605,112.60019451864142,2.9500000000000455,264.069819887238,13530.711829614069,17496.819876719856,17463.170237602135,20368.69715603207,18635.470347200957,19121.148277073877,B
765.8508698026362,170.12599574799583,111.75944010322064,2.9500000000000455,264.52608749071,17561.006827076395,19680.093618410006,15240.778107442637,16189.584290112112,13367.421806444409,17188.83904435714,B
772.711751257771,170.27589193983363,111.60259175674555,2.9500000000000455,265.5023435711903,21146.01685556949,16657.692863447734,15763.804767281403,16310.960796625004,17940.825277126445,15272.082421989846,B
768.3124088297922,170.40392251109657,111.5541168699211,2.9500000000000455,266.39978532003613,16244.203005705243,18963.211435073626,15066.972817809507,13438.44714976382,14580.595086632256,14577.446929915872,B
762.8827096292084,170.32495524089094,111.31661707187864,2.9500000000000455,266.1458341471301,14058.989137994009,17372.708948985535,15282.051099847293,17586.911914219905,17869.884092661716,16847.99095636158,B
760.6179048164768,172.72270851558082,111.04166113517108,2.9500000000000455,268.09393303694304,17427.60083164355,15258.1510718077,17183.061598978926,14296.282565389149,16304.152689467295,16247.189134287488,B
765.2351687880457,169.96743591252647,112.05000000298196,2.9500000000000455,270.590642776034,11903.533637150018,14731.612778495648,16297.494218739976,17403.134311681897,17831.649142080798,17272.602033152423,B
758.3499936529086,172.77999976395586,111.6166658908633,138.07574563422818,273.8877571227545,12238.987311344568,14338.758766727075,17563.060356407386,16300.925773830855,20341.891078522684,15266.709538653264,B
771.3698573360407,176.8672546347601,109.26352233583839,76.49999154104948,274.3197392908344,15730.96852384495,17075.22546689537,16261.337272157665,18791.529553832886,14290.270668320842,17576.255683736515,B
780.5350950616106,175.91604434283585,107.38318684891246,68.49788306038832,269.8632169366072,13694.48342013116,18244.76190983783,16580.66388732111,14606.163542615435,18429.991620499593,12895.578853144716,B
778.4533975581265,176.315860048886,105.90333581213,123.64981592815153,262.8634368998438,17423.318815070692,20116.94404912682,15908.526696407338,18333.793476877327,17638.15140116847,16196.9736904952,B
773.4744547061,177.33357728424693,105.21998697619074,127.1156738400307,240.15234314824306,12907.35642592618,18414.910057408313,14837.953969878563,15204.324173771878,15729.791724225151,15285.882470018507,B
771.604362577488,176.5072870376198,104.63253982837527,126.16334635396993,237.32584719042038,12482.400952582484,20105.77864984596,13661.62649604292,16067.969867798616,15277.188998749367,14848.547156890223,B
773.3386099002767,174.88334863910814,103.23750000298182,125.42078068360865,236.5585568865206,14461.207172276292,13276.260684402863,15496.14198693844,15534.801173061831,16518.766500779246,17818.834715509824,B
771.1765415887735,174.1906715365006,102.9031380206939,125.19503815875892,235.41377354865344,17111.34207451638,16525.66874210447,17285.013003584405,16051.130942379143,14154.032038943318,16198.464748090148,B
770.2949767705079,173.80000095446593,102.41759438894618,124.83411454757247,234.38336917938017,17881.193283794164,20002.79531950246,16238.46112536185,13243.384642063955,14100.197124853603,17784.003630457817,B
769.2431780082749,173.66352615361953,101.97921649633754,124.599740408856,233.58051371476608,15629.2476299242,18380.96178169373,17893.729134567304,19550.135851445702,13805.816098871548,18701.978458471065,B
767.5642190108225,173.61236651252526,101.96999924883089,124.1499472109534,232.7033243299054,19667.07900340834,16700.225595337477,16928.194315399818,18946.316015166325,15637.386797156962,18044.25207244802,B
768.4064614029876,173.26998691618815,101.63327210738262,124.04693679631937,232.2820620093533,13715.027827227055,13851.886361446912,17616.44428682665,14143.34123114353,19057.811366916507,18321.013222659392,B
766.2650276639685,173.31673894566842,101.33256424268242,123.76266174315506,231.48328430236037,16914.08625467218,15642.678538026486,15207.27633755605,17936.779929543925,11870.101230037468,13168.18416859278,B
766.7604616441488,173.5627573132602,101.08357772425283,123.46660137494628,230.94506591137073,16050.053368455876,13940.998935681497,17519.074822919705,14503.48231650655,17313.075522631872,18150.734448007344,B
766.8062872564024,173.35724284073194,100.78437479714398,123.35104084384216,230.837292180897,15206.96396706357,16187.00158326303,12847.35801591074,15155.220080002764,16728.30523502723,16485.18177519112,B
765.0868265154822,173.70018536170969,100.39687499702131,123.16661783848227,230.10025639770294,16723.7025147316,18148.70979984341,15570.152575458027,13993.476695186862,16303.53751512341,16809.912642210384,B
764.3137194086581,174.05000001191198,100.26562514305252,123.11665431359424,229.35099645952374,15823.786335970048,17998.835568678725,19155.4269195137,18807.213525032228,14604.865453443106,16432.736183957673,B
764.8003599048913,175.17161377196794,99.61647130345473,122.71686218480677,229.2158740172817,13777.97446836344,18672.9337455947,15721.855551399542,14544.828092803658,17956.69111972726,15511.243479505069,B
765.181162980748,176.55009864568828,99.566617597703,122.8176432403473,229.5623697797476,13952.568316441064,13911.560476326029,18165.607238303415,14892.622697472321,16886.613373584987,21539.606513006438,B
766.5932269584018,178.1426957418665,99.6656901009549,122.66902263608554,229.01744792858238,18928.171667535855,15354.215429886259,13878.545960919879,17179.810569120156,17381.69287097078,15432.438206242086,B
765.6049111463983,178.75432768042236,99.40649819790228,122.57960879008169,229.3197795065766,11081.213989111398,14235.534748238832,13087.666661052961,17996.77502047204,20453.054394294195,16924.030237898252,B
765.8674197098077,178.71686221782957,99.22839743297641,122.1825520266962,228.34666240710885,16308.367813194962,17096.019863840786,19663.611231474824,16101.178611607033,19587.422442504787,11934.273677563331,B
764.8529685806565,179.00391110301211,98.76749699812845,122.17923501017208,227.3968260162916,18093.189596122673,19183.284882323092,11678.440613759183,18510.323073555133,15372.915767589036,15004.037582161565,B
765.1570961066014,178.5301563906346,98.28430989583467,121.97155430813822,226.42584328727838,12089.734731961804,14980.049411672506,13324.465309356654,14059.98823781507,13861.865157395321,19315.01036133228,B
765.9478672095383,178.12313068708053,98.03417868309825,121.8365071145674,226.32676186883631,11442.117796355327,15914.618528755163,20658.47381237519,19864.407401624085,17693.112052390035,16477.43118526254,B
765.1949473871874,178.04655050834222,97.6960937371025,121.64612707764408,225.4302083303556,12058.813966668482,16270.218375537283,14554.759918157713,17055.115501821736,17667.430466166443,17427.153777581396,B
764.599854954743,176.7966339715349,97.69658203050567,121.49041727165495,225.04275716966126,18613.39462487369,16443.165525538534,16338.648652619038,17510.742934079237,14319.055214103917,18879.3915667403,B
767.2722593967623,176.4533823164324,97.2882446281636,121.33803324694841,223.80255667339733,17160.097549430873,17653.883539085382,19511.940415379784,15850.971501819638,15040.00138016853,16097.61109038666,B
764.4586747870854,176.16730143227906,97.20020828225393,121.1374999841701,223.3168100992844,15124.647389592166,15063.659908928374,14145.716941182716,17132.32141265579,12355.909743123182,15965.701232412723,B
763.5505317255152,175.45890453338515,97.36254881620539,120.89995118677749,222.36430242850844,15930.611139423021,14479.301833086934,15482.667517823229,16225.413646963749,17705.5173640262,12277.794995859756,B
762.1634353420975,175.24662794876645,96.95410234052856,2.7500000000039106,222.7294261286832,17172.930486588662,14713.560194012596,13896.64190249259,12990.57616799176,14994.996331731978,15118.848453229508,B
760.6955302780823,173.76640706356844,97.0125526906938,2.9500000000000455,222.04642004588123,20984.5689478166,18561.37601888303,14105.351557714073,15810.693363766579,17133.897115117983,15656.478965737053,B
758.6877922058108,173.3002474466992,96.71725257728421,2.9500000000000455,221.49999102050182,17160.997206881853,16566.497851780623,18198.758783084464,17123.13757918241,16498.340084454318,16117.941555992758,B
756.8507472546478,173.17994791867144,96.37911788918382,2.9500000000000455,220.9000459321469,16024.000612459471,15697.620789304148,17102.03774381097,14587.583986144298,12762.83716857462,12814.190168777759,B
756.9918007182421,172.9291271517352,95.76926776964146,2.9500000000000455,220.18234965001267,9683.104404957954,16275.608155123278,10986.577392506366,18396.140519904733,16588.16605230154,13990.065169156462,B
757.4587850906921,172.76433589036623,95.48332951863753,2.9500000000000455,220.12916686640364,15273.601807353518,18390.39958609166,17950.761280876384,14858.031597459962,15801.966328822458,18322.75421114174,B
757.0868722855732,172.6643261565698,95.63567627196362,2.9500000000000455,219.18745020225037,13647.681607598031,14041.990966987762,13468.000851637504,13520.693712872968,18705.456235050493,18431.64939164,B
754.9437503338066,172.61437199519574,95.44505132022073,2.9500000000000455,218.18749618684643,16545.872042160274,18292.72036738709,14234.578799821116,15495.763612293798,14695.191614591622,15355.090128764534,B
752.9676169479555,172.9666668583239,95.43333337816634,24.749328613281296,218.8348968354435,15692.840464003995,13541.87848303226,15393.05909792963,15636.687320404211,18205.573249487472,14407.30231223898,B
753.3089340621655,175.33516833468602,95.43019613822449,119.48014419555902,219.56354188523227,12769.60544296772,17264.387553108107,18534.255207892485,19405.044317672553,16911.041376041616,18271.870961347617,B
753.8453667792311,176.03351641302243,96.3207560094711,119.55734054639247,221.07166768387378,15770.13028978566,13644.151048184824,15972.464368657975,18569.3364496826,16791.734826987347,17349.504471478835,B
753.6568249652403,175.53312199606867,95.8176595044034,119.21752503712791,221.93074549956978,15534.327681105788,16469.49743084558,13305.824658649955,16395.50839021017,13311.490129538934,15453.835841433067,B
756.7648012184793,173.6133448871423,95.28353170876576,118.82084573111584,220.51739679966823,16263.027343641026,17813.607696940948,12736.862011962254,13942.769080198492,16376.464875642643,19512.93478285141,B
757.9915441061628,173.2906563558303,95.27809728061307,118.74500349437476,221.08351536092067,21201.654826682672,14550.050320581262,12172.966048237828,18028.391155279598,14546.603351295144,15983.93502182575,B
758.7450675815566,175.21725591104305,95.3301963170617,118.87006739055232,221.64608153197,20433.921579659123,17871.958497300784,16328.254596576275,15571.935058993065,17204.450632568063,17638.026887851556,B
759.7990323058673,176.74681393228607,95.53351338327407,119.42995179191375,221.61754055377384,15292.808895914186,14805.561731343865,16575.082829810828,14342.3135544169,14816.783744960276,16306.165743565769,B
759.0522352241908,177.11249599462585,95.28387050218639,119.30828450129638,222.13041604434557,12078.9349103952,18518.247926558444,12687.385365066635,15910.350700004929,16877.94853255715,19544.422427532543,B
759.2095397900782,176.6611360669891,95.23666437467091,118.74584650596167,222.91686502782062,9252.962686349743,13260.93025716838,16926.358376751312,15197.222942768965,13917.328927502327,16088.201013215254,B
758.9460774390107,176.45319902082625,95.18353170448418,119.12011229874129,223.55102920837967,22198.13689915321,18324.28109117968,16326.767212625171,13665.367179436464,17221.133856592875,14066.897142171574,B
756.4616749946399,176.11426189043937,95.27104108830508,118.78334560001477,222.83332007613126,14591.742973325052,19988.342899944088,10941.67072981617,17752.065883579024,17966.841848375403,20272.742513639198,B
757.0517714983774,175.25228072221958,94.79604490696329,118.43647441859443,222.5737377834858,11345.679382085804,16939.924466858727,19072.660316619957,12225.308632279504,16779.30247514287,15473.712299112103,B
776.4701065814819,172.5166675169824,94.54921874770807,117.6658854007273,220.66686173682788,14452.998051062168,17106.87555405185,12000.762446203826,17003.36035689542,18308.646716132775,13566.554794508109,B
771.3738344914416,173.27485528465013,94.21640610991895,116.92936201493126,220.85927740732058,14145.719513985061,17804.29346484066,17456.359891403565,20428.64514899582,16109.604031186525,17917.302582029,B
775.1608989075028,200.58376871891915,93.81660176911832,116.76691371317489,221.88308899964082,20335.01032478091,15517.438060146731,16034.038828235507,17652.97802476578,15432.58742770851,18828.566880473343,B
770.5599975527457,197.43227548618057,93.51647135398184,116.37936585739726,221.83406910522854,21021.52618239166,15541.55964498833,18201.459011646824,11359.855236645606,18316.80907056244,15667.89376083611,B
767.8252363578122,195.17889614619398,93.16672770201426,116.51984380080239,223.12056962132584,21107.245006361532,13603.481797448028,15318.47097002156,13790.841307577988,17491.98101522182,18756.09723338164,B
766.2167528154453,193.16825688902586,92.96749447181978,116.76691155776848,223.30006129046183,20430.301721478638,13300.867815656675,19917.15978356217,18065.35246827697,17685.04228439884,16527.85022757909,B
764.595010765925,193.22320945741208,92.83230713185085,116.90714519495945,223.45069983021386,19827.0853202692,14317.918893996804,17543.096628733423,16280.909722178938,17239.899954993103,19073.425991066684,B
763.0332917321084,194.20059658161586,92.77083027858139,116.9166631963863,224.08770703286322,19073.699904665285,21785.491371082142,17777.554238937104,14578.913089609036,16026.717945967845,15304.93141399138,B
762.8043379587396,194.93749389033798,92.64578426585986,117.06979166669976,223.99706116990836,8494.09871675618,14428.91305003698,14648.548699416377,14351.125259342774,17584.5902505035,16875.698071987503,B
762.8801800999265,194.9376708509305,92.48333331843378,116.73288141886651,224.59664301801212,25020.81464711245,17387.057173945603,17651.799496777465,14028.466401665364,16517.93413063155,14797.454574863674,B
762.370746939943,195.65500076859462,92.53235696101065,116.90494773786637,224.93020551726332,18381.784869168037,12866.897527767656,12616.505755263195,20362.759539931787,14962.443896483503,16764.441315089665,B
764.5973063025907,195.9928792680791,92.43333333333476,116.81743575732476,226.04245101685729,17549.93447217699,15503.984593930561,10449.934678003974,12122.368261384216,18092.914209459548,18306.058718710396,B
764.10450655496,197.48735332532178,92.78312556345819,117.11355309883648,228.2803057995963,19394.575726899882,14622.63563866743,19893.821673547245,15302.893329477407,17288.979647583725,17855.652570842558,B
762.9579651655004,198.55182777270971,92.73254898389159,116.97936121622028,227.31542991466395,9107.49546286324,14080.245074423254,15544.989000215413,12228.829482037774,15490.04430299337,16341.7794306284,B
636.1281560043653,773.1824658595663,930.3916510756396,995.4358506990711,567.6532738111378,14097.047926126015,20210.833759598492,15218.700128265085,17690.23897371449,17066.077412605395,13186.827694401047,C
617.4926312035113,822.3619340029694,965.4369781869734,1005.2502054722706,584.776464976728,14934.590222766774,15994.047987510145,13899.921236436985,15225.666995527392,18166.87230232636,15511.256534358621,C
635.7389745371556,829.588248933668,961.205861170816,1005.2627930165424,578.6467922752313,16106.721935899996,16386.87307169877,14604.670113127233,16925.903617516866,15482.149175046978,13970.182595574423,C
606.248722558568,825.7556605527337,951.2454909154778,1004.8002449530038,560.6464483428538,22120.552954272738,14711.829118562013,14461.768764976343,14239.704934586796,15302.229431819573,16630.532654954128,C
584.9825780644012,829.8470677960144,945.877691708282,1004.58460713779,555.1031878775957,17722.130093575215,19241.436524773013,14552.017467452819,17587.209070571007,18510.629822515093,18240.736874136,C
599.4381203311107,824.6167300305806,946.4333926670308,1004.151471049356,553.3362224009828,16364.686565238706,15638.977772777323,15453.93843617829,15656.797499162964,14894.307731702513,15953.062206503804,C
607.7626150222404,824.8441472117258,944.9147859522315,1004.564096895707,550.7184105646468,19041.341740460066,16879.224456742562,16815.967517616045,17323.305488312828,15871.491976861944,14197.285312516946,C
600.0595881803459,826.2750605773838,944.809669735544,1004.3628973439811,547.583529105014,15976.030109119089,15886.757343287803,14612.556050519455,17413.268524588675,12330.456185253457,11748.601887585817,C
605.2323829684301,823.9422192843952,944.8276354463233,1004.553975349881,542.0980989992735,16590.780653599195,17629.811410826187,18599.34853441445,14868.621541256605,16035.083878703363,15630.442765703337,C
598.0069114490971,818.6392821739025,945.343323716246,1003.6664185608736,539.4799365651836,14435.912318596495,17793.948348379017,16443.891943608884,16480.08263363076,11354.888622538661,16750.244308073405,C
586.9537264277167,808.3863095051793,941.8947578799737,1003.5775483016814,537.8630368545146,15754.715163713345,15867.797184083644,16562.99352920679,14142.447285897317,17540.165814461165,19573.088936076532,C
585.6555220692637,805.4140617489899,940.0773753278793,1004.4149511635894,537.387159470229,15035.574505489192,16206.788676372453,19644.499570733733,13987.615346105731,18366.031549927488,16281.528191335932,C
584.6107536149458,804.1251867540043,939.7972348783618,1003.4740884802368,535.8168604078586,14122.800701485732,13748.267636284163,17158.98995013335,16995.68114471522,13604.022678775185,14399.985099355923,C
579.869606720901,801.4455337483589,938.6772287433257,1004.1071447440497,535.6703856084556,18697.02090366112,17516.97200571456,16137.2275460428,16292.29541989134,13278.67451925301,15185.727641637981,C
574.8827238373909,796.4912872512901,937.3571655037243,1003.688296754156,535.1170879533462,13546.116269770579,17856.646859078603,15268.13098240649,17519.938561672825,16180.700367375253,20250.394370526064,C
572.5398900459832,794.100497732286,936.3460355281131,1004.2601593987707,535.0959718863834,13616.797897162358,16322.927993997331,13664.126063373347,15745.892741689848,14642.037667889623,17545.713594602847,C
570.9462521255621,793.8585565535816,935.3039051405883,1003.6345860514381,534.5695798845918,17445.284268514984,17087.309881829708,18511.23534495605,12887.841176189675,16523.56674597889,16806.87207774737,C
569.9499471566429,791.8506385009799,935.1117067426985,1004.5023952637696,535.3990918803609,15956.384105828498,16018.062935695463,13324.380699153146,13992.250483021393,14482.420264403709,14636.07113628349,C
568.8134886803209,792.3249999948027,934.6560146108055,1004.2595835105794,533.1536377668292,11688.9555982708,13932.226932269909,16300.214861569544,15469.915551320242,15460.654670839178,14505.7692918684,C
568.7539862725978,791.6442319851054,935.8367427706708,1004.5093765021571,531.7706029144035,18143.66708764796,20067.615139499798,16449.827392781466,11448.931504553568,12422.278870218215,19943.030223406713,C
566.5015503956547,790.4666123973342,930.8315208568005,1004.8005091190844,530.566025558919,12125.658113051268,18850.871408846484,16141.620306217723,15291.616851707504,12011.93797959347,15546.004077096377,C
561.9553911944198,789.6586601915225,925.8558366132833,1003.8469285495983,529.8657942437085,11645.21531958787,16713.051023718413,17528.40776408232,16719.592192946042,17617.00988314879,17489.731444732974,C
557.131423290861,790.2668131340803,924.8390476216224,1004.2237725801933,529.1364190036129,16732.66346012816,14856.616883067694,16787.8496517377,16218.808270638565,15511.749115536115,16347.231988846315,C
555.047616931803,789.8158953311671,923.6874372481846,1003.4791238196792,529.3720129123893,17684.291336917006,15198.95763353334,18111.34751291328,15157.349915184837,20612.252037221737,17573.514438350383,C
555.1822249860282,789.8471199537489,924.0962381214225,1003.8633402087431,528.6945311537287,14438.38434222645,14877.529776288513,17381.818473096857,18985.67064997309,19357.498246455147,18331.98698635911,C
557.5520897821682,789.9556782185113,925.0364348348736,1004.7330322431092,529.2341170085047,13311.140505500356,18428.904261666423,18189.22039659718,14393.856274013535,15866.089772397763,13964.668693942023,C
559.9081850691749,795.4324696153371,925.7279990663952,1003.5610390105066,529.2421114659243,18182.088333290758,18370.40637101156,18459.445254683036,15767.126334175675,15816.242598252433,18537.290955188262,C
563.0537583907255,796.9229878829683,926.7987453992653,1004.1791019980253,539.8818137614371,18143.518407676012,13801.591809747328,13405.034231337315,14099.13749789464,14610.104634507905,14772.383146475686,C
558.3762816399228,802.8677663339425,926.7171393563655,1003.8268180883821,534.0238059162906,15247.54430401279,15286.092563813068,17018.9122904024,17611.546654069934,14476.97611069415,14958.69678233563,C
560.4060583023529,804.6522539117584,926.6514436597296,1004.1789040105007,532.7268552114348,19511.368549334235,17942.260985139786,17025.21336849402,15287.04174208187,11936.468130397725,17347.116810725307,C
561.7099324007913,803.6423635586922,926.1583664808674,1004.2550790336278,532.5214193732838,15707.197792842804,14839.843902249902,17933.79163377821,16980.565042428007,16327.074035137586,13759.997764890835,C
563.5622550235701,808.1491017713595,922.8894035702084,1003.9848995629409,533.2638445678061,15273.016473755819,16993.576624539794,16632.48455994689,18132.43183926343,17518.01240653877,12976.570842123056,C
561.4006060527765,797.7009364054356,924.324258803402,1003.844765180808,534.0836159594288,19082.57516935029,17245.42160949074,15649.774338545307,19171.348280809594,13021.006971407116,16330.552697230192,C
560.4282587752325,789.9620889971306,919.4045475600408,1003.7344376817975,534.0225271110367,15430.890374023982,16658.849335346393,14989.192653594644,16274.868432507938,17027.707334538314,16361.289422196214,C
558.4872367506694,787.0558831234533,916.5170237975672,1004.5031315044014,533.9068328468999,15512.067776165379,15085.817521321496,13883.375920943188,16508.578276428878,19979.558679616912,19497.59364542753,C
554.1917610885713,785.1271944662687,914.4460220206996,1002.387960291497,533.2886798212706,14637.501524210744,18849.73518452838,14434.972898875165,13673.251851571313,12565.965449207068,17812.336848268555,C
548.7588403883077,783.6773694453647,912.9638633361649,1000.2849992115802,533.1133904303607,16570.280611763512,17012.43360406027,16795.740295215892,15770.758538068369,15016.053211654023,17192.56594238275,C
545.9997193302439,781.3321306824656,912.0832864272794,1000.09137509513,533.4507822289942,10566.535003661742,14090.588890969393,18245.35792343475,16386.1775367077,17007.500642178147,16311.553595762216,C
543.890861081544,780.4111583372849,909.8001902358626,999.6907711897845,532.8619944679415,17128.84081096065,18245.26755157036,16812.63732182238,14160.086465596492,15966.835534414695,13307.131371290021,C
540.8202627100745,779.8424338731572,910.0180666709117,998.7380145897847,531.6887866943214,18857.551889862098,16097.609730073984,14868.974495606093,14544.879610570375,18655.333097603267,12881.764411962835,C
533.584849553399,778.8642944400865,908.7759807591012,999.6479177083047,536.6009379054242,15581.83622941902,17580.580915145954,19240.299677747902,18931.847059200263,16751.665883787504,15478.917706823471,C
528.3611869251394,778.593735711708,908.1914582812027,998.8099169481354,536.2824671270971,15230.949286017665,20238.604161666448,19911.760629994744,17001.830168104243,14174.135277622034,18143.63500461061,C
526.4699995059436,781.1068101301296,908.7134734802196,998.1870957276242,536.6470071456022,15091.839108837667,16693.31900445834,17120.620348050485,13800.445453204575,18123.472349778127,16330.395632056807,C
529.0434969689145,780.9416148957692,908.1220255144556,998.4767221651516,541.2731538349824,13170.206986041729,16956.695722664314,19093.503188738927,14103.883175461815,16679.407338180543,12706.485668773492,C
527.9251727042656,779.0593882763245,908.6166628411875,999.1950391028167,548.4398594230405,19439.301960487144,14954.352326335105,17863.120612952447,13176.839632873593,17404.871658348988,15162.091904173634,C
526.4379694637197,779.085014962577,907.074063540976,997.5798035278527,547.7384804291945,14126.366269759883,14948.165611781962,18209.551599126607,17831.7800824743,14979.96762606653,12849.570080218418,C
524.2592577336109,778.7625027064987,907.3298143493997,1004.0545492770864,547.9122599767957,17153.338066750934,19209.146338128718,15418.808869463555,14054.29663069541,18940.102312394247,18293.83381450357,C
524.262233388409,779.1760650907643,905.4500742195381,1004.2812736535716,546.9494950209828,17078.780983736324,18185.06050323609,14016.936563417752,18104.135405227127,16326.5057584647,14345.955118400781,C
525.8317195142139,778.2150971085442,905.900714563067,998.5423638669021,546.2339317284111,16290.361181586175,17965.683218696748,13879.526924622678,16632.30977416316,17302.09635651962,16063.490822550779,C
519.062591629934,777.4308261993144,905.6670726222914,996.7960734352762,546.1333495614899,15638.283086197276,14460.46346714776,14696.100540881278,14971.74608665985,17935.565717028847,18270.130051353033,C
509.77089738550967,777.2627240460824,905.9341750663207,997.7705859008172,547.0105187726174,18575.595435948864,14980.050501749862,16871.030270885218,19203.650916524606,14007.283823955499,15909.13213956627,C
515.3815724792946,778.59996743283,906.0620036117068,999.7541698517232,547.1644874972105,12283.472160212556,14989.098132521085,19785.354989727457,19795.751107911474,19688.506151912567,15893.86221066424,C
514.5156943724766,778.2259770665336,905.5820422456034,998.8379177683453,547.045980190995,13786.692410479218,15540.618237498007,13584.838196990071,18455.95938301302,12827.415267786728,14901.354568992349,C
519.0943816284176,778.3666931631273,908.6642525706557,1002.4102089565979,549.2977949460413,16805.42421313479,15140.885402344236,19481.321199707032,13113.339499104593,15274.320822954609,13813.435640323034,C
533.1298766971906,780.8517616152042,906.9760056036345,1000.7747640731944,547.0452573634974,16520.96540491548,17115.49507654118,14792.836188316744,17421.06678987572,14155.85025101138,19531.056531524635,C
528.3080716073049,781.5344358302543,904.578204754365,997.9294207468513,546.3216666668729,10849.694057031233,15349.650937771617,14464.463370769217,16665.72604985114,15870.046750728881,14911.148819206344,C
526.055743963967,779.3556600113614,904.7057413530831,997.7250737264369,546.8624502501485,16176.976534331188,14880.39683868179,8711.681729367627,20154.56062788603,13322.944852941164,12828.199519146567,C
521.1534730140768,779.347315295859,905.1358800086067,996.9300132036444,545.8990265129183,14894.370182930254,18703.13649484055,17904.299380330456,21433.31487260627,19125.110761753553,13125.499825395873,C
518.885671706071,778.7781897149773,903.88255222636,996.7972414498297,545.7446432013123,17839.88892181962,20087.058504059365,17946.031644075585,14839.357851358634,14562.248972626752,13514.319596034527,C
517.9858696901345,780.0390311881887,906.0368458327672,996.8449906736521,545.6843034746873,18304.002790490995,12197.57576560964,20600.696336716268,17304.245560639483,12317.338866065567,10860.407309239486,C
515.8037805669767,778.0570955905488,905.0268761258958,997.9420605733851,545.2272949808432,14258.197606425481,17678.039548886554,20181.303922520696,12498.8970555826,19966.227895468382,16003.339019007273,C
508.8080629508351,776.8044108326236,904.744093244283,997.784183843162,545.912257435178,17186.772483075787,15180.785799932895,14479.945634168393,17097.288605448673,18793.581807966464,15453.439174063653,C
504.3328641506911,774.9323313285898,905.6196510256174,997.4108333422713,545.3127542511908,16556.79762150035,16888.76309393887,17099.34566305486,16231.713498477193,16051.761705306353,16535.866492164558,C
501.866988495946,776.6526694750114,903.9345908163925,1000.478201786918,544.3604579036995,14056.19864466461,16516.39125225379,14893.630477082475,14532.278920566809,15081.923330464793,20095.42848283999,C
500.91011070061484,777.2240052515572,902.6359447348026,1003.0034436058453,544.2260920306481,21222.7035345899,17235.851140090483,14238.485401117048,14827.976922507756,18219.211597890717,18945.59019570311,C
505.2670412293539,776.9841321667145,904.37800117036,1005.5001472480872,544.5790217560657,13569.593538460913,17805.852402212226,16062.721431016427,17456.728287101112,13205.050398338732,19107.122834825655,C
499.8007134864953,776.7673960254627,905.5313509945667,1001.86390393024,543.873811181354,14240.32407582945,19885.036954706597,17756.15672834271,17284.685324599013,11234.141867240269,16074.555066476507,C
512.8660532083306,790.2365120419846,919.4374980043109,1003.0565973441395,544.8565922930251,17010.945431849632,11936.9282990876,18174.538860462588,16321.098995822822,17288.310597333435,15730.019722968678,C
543.6694900999472,805.774227750064,934.2632121444334,1004.1156515578052,553.6999301881172,15764.993276106014,14157.654064986122,12497.80452741634,19633.75645749464,16227.50516601856,14096.588229610188,C
527.5869905989814,797.8396042660618,914.4857421472179,1003.3595590232559,550.5664561405767,16045.818053443818,17035.708417061403,14092.446243200768,14196.525513693985,15428.9757756292,16106.21505466708,C
512.0024840735827,794.311476912404,909.2973039368429,1002.054103341309,554.0827615531488,17953.29385761162,15122.007478780335,14564.023729548784,18192.914761692824,16195.578795018087,17399.94483194132,C
507.86859198208714,791.3816402880949,910.3145780597908,1003.2571489677473,551.2184330818279,13041.419560583132,18343.91567760887,11059.62058410617,19473.328148970068,21137.15284170363,15681.29528504432,C
506.7291786225496,791.7866185502728,912.1540096600532,1003.5904888576613,552.486146874665,9648.265885380826,15376.05409422005,12041.214465482526,9948.044712232459,15060.713357430664,14440.86766114283,C
477.77079643604594,781.2638323837516,908.0259775527575,1004.5541385799986,554.9336686171504,15442.231685127006,15617.41290918309,12306.304997274918,19773.954614476912,11828.555547659886,14217.19125567888,C
459.7090498041569,776.5760446974476,908.0532816150023,1004.0008767698539,556.0637892104108,15454.86848100711,16924.986938587812,19057.725918882687,17724.590101332044,12990.125469592384,15130.980296638585,C
445.60807278037373,768.972119520739,905.9198774915936,1004.3628941596708,552.7128839658923,19787.165962145104,18610.735660262188,15853.200487493963,16368.280977905593,18146.250105215597,15914.703530510491,C
438.60045936503536,749.6968044090385,899.9997669695346,1004.3164554811794,552.9152294796561,18752.49640968185,15325.856029888624,19185.95676874008,14073.551308413269,13183.627367593388,12348.048702285967,C
435.86086444649465,758.3497947393051,912.489366031614,1004.2650795262477,553.9967455426442,17729.823384287436,16233.218914914945,13820.202331151007,11650.928479288812,12620.455965610156,16408.74301778892,C
426.9257397001804,761.7660079280657,903.5009291748904,1003.9633189768294,553.4820465632247,19708.977737483845,14661.439064959559,17599.65807506702,16293.26884409953,16758.244218708263,15119.577307230866,C
423.693207841024,747.3598747101463,896.0482313479237,1003.9477072144397,554.0648508588089,15748.68535358743,17417.755918044128,12515.831288539664,16451.0088348684,17734.234133803988,18653.9901634854,C
419.79271266040377,752.906579638802,906.2182093416656,1004.2125580138305,553.4957677670426,16208.281048744166,17502.76897863189,16265.541629872478,18600.68088675372,13591.73086089699,15033.271880927807,C
412.1149594940745,746.118556072324,909.5238665503281,1004.8137382658733,553.9633967208656,17818.23960930517,13956.91577893156,15657.506156600642,18077.077379895512,16733.993312140265,11720.893449756692,C
412.3966714383472,753.708528280257,906.6927454612293,1003.0379982140133,553.6500411222929,16236.739851368218,18798.951204055906,14980.747609041699,13141.947403014265,15685.608920139872,15534.686979401129,C
414.10429762452094,766.3806576092109,906.6641949036788,1003.8756435635281,556.4002141069085,14215.563179714061,14711.80727260657,17311.75514585873,14564.246541129065,14344.353733951983,16825.13621993497,C
410.95228090115023,762.3991650621356,896.0937103599872,1004.1260855724273,555.6187649063046,14132.590341854313,14709.403737245137,16445.892927471363,19448.49181367164,12256.289344068358,16687.986820396753,C
407.68401694274746,768.1212736489131,895.2164229097032,1004.4692024656575,557.1974739204761,14853.354323572228,18672.848275083546,14970.351629690933,16439.976965294707,15496.49506321627,13755.805531721398,C
406.91643538381584,768.215510556427,894.7272382030558,1002.9776126984958,557.0682895654537,17447.085093370617,18421.038302897592,14198.425255527192,13359.589289910338,18161.916491219126,16483.902972518896,C
405.8133278560527,767.2627998477041,892.7425029238195,1003.7097450260815,556.3903513801173,18224.803401992154,17532.906212656646,17486.78101570144,15736.34565697592,10926.741818713623,15664.749990556575,C
404.99763830490616,763.6079735527643,891.335341449527,1004.1643227179786,556.1949541279491,19108.1453649699,18086.944138432158,13240.990604909439,14113.151543398362,10092.370679724623,15536.185696279697,C
404.72343419640686,763.3325157168216,890.7702386071621,1003.2884920242079,555.9291205713035,9604.25693772985,14643.765688028088,17213.49076220957,22111.26763414132,19175.230835696762,14574.185201287604,C
403.6001157790957,761.4471847549515,891.0801506543779,1003.229699376215,556.8522525469466,13481.286385092983,16908.874588500796,9960.638727404981,15860.863316455143,11437.756802295888,19153.3282150781,C
402.4363965368591,764.2870343845588,895.0205619045348,1004.2982197559841,556.5543218757723,16220.499526612242,15292.831965365156,18851.47996356026,16324.325755301388,18165.36780087909,13595.271297760924,C
402.06630101171044,760.283388810088,891.0833852025246,1003.8125511527503,554.9517509995756,20323.280514668983,15549.402603211547,16276.34346826393,11483.824306072762,16896.25836655778,16360.30100945381,C
402.5936724038121,758.2878904037156,890.0144455024736,1004.9640705259674,554.3569881439355,19431.540532955118,16584.458188087436,16840.008259240305,17555.17748643885,14372.170864501637,18250.992907972093,C
405.27843838864254,753.9443394501908,891.9196111369871,1004.106950617676,556.7279419058817,18557.306590384986,18512.61027364881,15674.639484606058,13825.08145080193,14797.379248848632,15268.027818785282,C
419.8186754997043,758.3661916729386,891.96651305675,1003.6400941044387,554.5000488432242,16710.265402026344,17385.353709436873,16024.272331455019,16516.73304499522,19843.633595208914,15162.874048322094,C
418.3545217434421,755.8452148357843,888.5248135895042,1003.8692171519917,553.9287703016865,16832.19341052815,19897.440765620424,20953.916994397878,14788.740134281466,17145.22673690551,19345.79840317915,C
415.380143115013,754.3629336385524,887.350777109107,1004.639877153579,553.7971599700517,14029.832022339508,17550.883098880455,15999.289107981607,16079.28236619693,17276.21891014132,20682.51000689936,C
412.9501365043433,765.9298113530006,888.696040871099,1004.3838310302042,553.9616241685608,16366.047883787736,15568.581055049328,19453.557394065014,17576.18690031011,18269.962240799814,16581.9989336225,C
414.6885805871906,759.9307273380788,888.7806512563124,1004.0532255069096,555.2415275287037,15463.643968660981,16540.823640809595,16451.643816638767,15637.119685074233,17542.116476355972,16257.5622828341,C
413.36238764191876,755.3297166702325,889.474888133491,1004.3882816322697,554.5163931964089,16734.95760355854,15655.891668080541,18970.28572382023,13182.475515909671,17773.104556645776,16154.34185487419,C
414.0511951705611,757.6132932819601,889.1593713141763,1004.0084633246631,554.2916664215385,15061.806586648807,19435.805851539877,16364.552627568599,19495.540599561093,16300.089699761491,14957.514252538185,C
414.2505566879822,755.475131050462,890.7895537871718,1003.5332659337222,554.4041603596968,14141.87849307474,16598.5920887378,14639.84787700494,13263.71026449587,16538.610654737993,11479.828053148762,C
412.4008921058251,752.7332508730639,891.7326720578242,1003.9392963621943,553.8601694832321,15578.9740755387,15891.527454712716,16662.44398406204,16494.50710591679,20339.829643151676,15644.67253097639,C
412.31612960050677,749.8637804803326,889.1058074674089,1002.9334310055958,552.8495837801659,18858.226129343693,16517.790169525273,17766.82156385824,15139.787734126847,14288.860363907332,12642.33622816807,C
412.4876686076386,747.4371025968676,884.8636774453487,1004.2696253423771,553.0170786556713,16268.7382223631,15661.686049843502,15108.25772931354,16038.757045572278,14940.639155618652,17452.295906686653,C
412.08854083258046,747.3741418211016,884.1197395372981,1004.1048048086374,552.8951823194795,19336.232518172204,18834.345615804883,17320.11207649149,14241.755287004475,21868.841388772802,16919.955767191517,C
411.19177195707306,747.04055153843,887.462369473354,1003.6653885038146,553.5141198596226,13904.816067290765,18719.26531875239,15555.668021870923,12383.684671590612,15031.803734567817,17802.131568718574,C
400.06623932540026,745.7274573746757,898.5007814506055,1004.1775887165699,547.0456584328069,20494.77833830806,14499.441240286498,14757.830485964849,14247.54789616974,12447.95525653127,18207.38517233861,C
399.553909080249,746.8590009679587,899.0921689980069,1003.5407140859327,547.2634719111305,14329.067795540856,17195.568864526107,16548.93440487421,16993.997418375828,15858.223510436175,12695.904535785565,C
401.3592878038155,745.5946268003105,896.9328809747709,1003.4594372072777,547.8777475589538,13841.945168808143,16224.53015354333,16431.563567677327,20475.064918660704,16676.451397947647,17828.890358652887,C
416.0870723190561,743.2666413215986,898.9365636766943,1004.3525516525249,547.9439493926329,17878.891389360673,14108.887579129418,18344.2006620009,17239.688075230923,17893.68674782565,15954.26853754967,C
419.8410828404811,739.9996638587129,896.2248383730748,1003.5095765251277,547.7891535475698,16941.31537614703,17500.60430540458,14195.352256161068,17664.29894512155,16815.84028758585,14919.331796517374,C
439.3270773057685,740.0101629020763,896.0890137651844,1003.2505255334023,547.8656901158865,16363.776119279762,14290.890895993653,16884.05858086481,16294.63267463386,17229.880892965964,14496.789181408405,C
422.22705075560805,737.99673503622,891.8087448909357,1003.7235867362276,548.109887576507,16184.013768745954,15184.647493044575,18486.22434724232,18139.76644988206,14558.750891490772,17655.853892984884,C
427.83007351384896,735.6898276023527,888.7996467491643,1004.6080545478205,547.6674397031051,21009.332439921807,15294.533299308066,16395.208321485177,15266.12961596268,17131.996486706797,17202.146577881776,C
425.843904625582,736.0233358936404,888.4475095146583,1003.0506020167797,547.3643448878477,19314.335284716566,13263.85556610474,16343.492648309435,17667.065873248644,14600.033625203889,14244.84677139321,C
443.16116509870164,734.2968736172865,888.4868529779818,1003.5398477606275,546.7771358302878,14913.920171190635,14592.491514952275,19644.232108141976,16853.573808982277,15957.069375604395,16721.748580733085,C
450.1768516595483,734.0144920323357,888.2259152740353,1003.2155064022924,549.1864665142946,15125.859334822197,15646.644313602175,19745.060836186807,14441.183990464084,14038.234103893561,17421.07017129156,C
449.0623007987132,735.4213266394028,889.0713849056726,1004.3921403214987,549.6771152368945,15796.498947229406,13953.599299107393,18882.193912782404,18926.541299176126,17553.38598919192,16699.894012739736,C
449.4402542860906,734.0977894357,888.5083379178786,1003.6534811572923,550.1524165559604,16087.621653597696,16439.667571323313,16728.245429552895,15570.716516262404,20657.339285735296,12338.416587624688,C
453.34257534397494,732.5306730178457,890.3320966353618,1003.7522068031469,554.19996338168,14051.663235793985,14352.364131509317,17584.02969254146,12948.453259643387,16228.730304780238,15815.608476665293,C
449.3375472022793,731.3199319030332,888.8216664431031,1003.901669921238,553.1175356977894,14063.023965463817,13897.900267287241,17297.427289385694,14967.199303255667,9607.38709285392,14297.011808060279,C
442.79617683526885,731.7534454889832,888.7712342584458,1004.118780734023,553.7659372347068,11511.117857159314,20246.33378954846,14288.278179379671,11721.710776204827,20756.517592936954,16049.119129323397,C
444.8826513361943,732.3734349809281,888.3647788374358,1004.158823068283,553.8533238569523,11741.53710997008,14369.527466211302,13756.809117577326,17668.974373467554,10633.690142376256,19294.835551875967,C
451.3015440506001,731.3301392151523,888.6562947862309,1003.4964472407894,556.0549642608721,22874.448119144778,13146.925610114302,11597.92448339122,17598.188235874226,13304.068827434874,15505.921765439267,C
455.1610421353507,735.1371663639426,894.4773874485103,1002.3571785603006,558.7986222160389,12873.027229856989,12632.578862473072,15151.866908610076,18443.540829236717,15983.708634900928,16941.688016519263,C
455.803437727864,734.6899924693702,891.4149113166017,1004.2764744186261,557.7931028477343,13220.586143140437,12933.755971663271,12904.95958518947,11049.44097221333,16133.414116729535,16566.799300044506,C
456.657825517212,734.4105346670116,891.5627155212129,1003.4275345929497,558.1829093426434,17828.58721008479,19765.004064445377,19846.30993939715,17129.11738418372,17035.348578750123,19210.48338387287,C
456.1040233605081,733.2670926629295,890.613898859491,1003.7664621631544,561.6198567403718,15963.561549317947,18219.79914904949,12710.520722539182,18833.42020255806,15599.149719256888,15835.214582575532,C
455.8949906327956,732.5426900395079,891.4676471996745,1004.4084015973958,561.6759907557793,19893.14265215092,19174.524083744454,17669.030751072693,14067.17411958917,17772.994835224115,14777.157257208508,C
396.3887528102289,702.3099989225918,880.2717091303173,1003.715724327281,610.0195725151459,18295.724471271045,14861.785888507588,11773.012898645658,17257.255212251832,14158.918030650875,13893.82271085712,C
396.5809353551267,701.2228838807792,880.5705760429397,1003.8259638173662,609.8145467091717,18171.072583498084,12822.52651801608,13100.738189018442,16352.098707772293,12677.253198745055,14734.150256912291,C
396.28465173948763,701.3619013376392,881.1272638955486,1003.7146748161637,610.7291352811626,14629.60742078882,14069.410186027997,14168.743726994251,16253.036336126399,27535.485229411766,15955.167478346251,C
395.7692889236576,700.1013895016767,883.0180355027403,1003.8508608014614,612.1119400199491,18383.35104227372,10354.17126475434,19847.84604534221,19691.997744518332,18789.228647588774,16903.523031785073,C
434.99412608154506,700.0123280376039,889.4733114230348,1004.4782112546716,608.1109284070108,20141.731194850345,16915.624865823174,15655.379492457472,12427.488004921479,15966.796136195288,14697.403289361298,C
481.2478922530951,705.0429987770834,898.2316237879959,1003.7133400572162,609.8198096733562,15170.657675070508,17882.651352254717,16987.485725293638,19661.221336906674,12548.85035422778,14752.16264503233,C
490.9854162407697,708.1029139870737,895.1930840043315,1003.5817819679829,611.2617158674009,20589.969217206053,16012.170257922442,14625.375127899137,15460.621139660148,12966.758313824936,21585.520371085488,C
483.66098843084364,705.5666548498386,890.3296500529689,1003.5869636550906,607.4120975829912,17917.94550650891,16450.05839064977,11972.116762372829,16555.282978797033,11268.353425077894,17140.484574153426,C
479.08356640905333,706.4317797047146,888.2336263119539,1003.6031290558461,608.7669071513043,14150.959612940618,18864.639155046425,19588.660624790897,14198.95982436567,12195.435164668668,15575.502268801318,C
226.37189108733665,429.7909189601478,1005.4130989201522,1004.1158729559942,1005.5541513445017,13621.034548580286,16567.681235768345,13064.68821666506,18779.207007820878,15297.864616210256,20647.697834794195,D
226.72831745148295,381.4733917690648,1005.1097662099326,1004.3638828594281,1005.3688965320749,11639.063119010934,15418.496240614948,16546.81908962995,14740.613512238526,13850.490114434677,14801.559648715915,D
224.56497877735833,358.898892195151,1005.5031740218674,1003.8572519718027,1005.2158332983192,14007.345969093183,17420.172190871293,18197.219882136196,17471.76138159575,17459.901947385588,17872.41250467195,D
223.56665440054275,348.4158482996068,1005.412500762956,1004.1613504423924,1005.3687660694898,10924.818505487357,17308.405604130385,20730.709053212755,17081.5670490501,16030.331616892805,18477.529036638683,D
223.55200982193128,343.57035937402037,1005.7633300783267,1004.5017093219564,1005.6125984192137,16425.38231917847,16028.256676273284,17221.741073548073,19265.465657022505,19355.57684413049,13791.68883500908,D
222.19661699732197,338.29955473992084,1005.0002447248182,1004.2043276862396,1004.7072399623958,19192.310557558354,17323.933172584064,16428.87567706339,21162.051203771083,11905.237719395276,16323.684354709763,D
221.73675821690435,331.9063953081661,1005.4500160306964,1003.3287229781224,1002.5189549596644,15056.4080295684,17826.977107238286,14428.294262135483,19368.45023136651,16897.74592516876,12957.315461630289,D
220.8001777561567,327.8994230299143,1004.4127443820892,1004.0502535150154,1002.5633886968965,15956.75077399948,15017.77957631929,18612.59853540759,18511.52771844487,11821.513245222435,15804.07516290083,D
220.50416587956346,326.080242411476,1005.6500030636993,1005.6500488282047,1001.4258433530653,13032.96077027995,12778.570653428109,19567.424784723153,17723.39891515756,15518.520106273547,14449.58342897241,D
219.53314644804726,322.7499631114387,1005.1416027548055,1004.3502113402103,999.8668492479568,16086.647190207525,16307.52773656647,16215.223066846807,13476.14395230354,17330.2338059919,18286.295815516183,D
218.1968883574535,317.4749306732059,1005.2004028341422,1005.3148560176411,1003.5530320277079,18342.60802683356,14646.25723467209,15225.041700837144,14200.546952803557,13714.442252795963,18462.824039413936,D
218.00004655147546,312.39499821714406,1005.1563035488291,1005.7001953132607,1004.8004030713104,14485.359990837931,16122.083991722451,14641.65488117195,15860.477797489653,16622.697629063554,15221.722611802727,D
217.96587011735582,307.0516234865337,1005.3035188200689,1005.2259888651017,1005.5037239076755,15839.382967861238,12471.585722391615,15649.112427847995,14648.120841396696,11583.215165751868,16621.72533901471,D
216.77449142452843,303.6823244057146,1004.7625252731789,1004.8382843018082,1005.4037141889606,16735.81973654953,18093.060875532803,13051.373399600016,16329.810147571668,17652.65542878758,13037.802885895642,D
215.96225484589672,296.9208332691147,1005.7500032454891,1005.7000495948517,1005.3000527860877,10000.469169565653,16866.507774438738,13494.734383829356,16785.801833909503,15025.029696613423,13623.154877436673,D
214.62895937273956,288.49817296549776,1005.550790405289,1005.5002082824927,1004.7658203608137,9523.512252581431,12066.765988415096,17900.40057327027,18189.972149649406,15421.932046623357,15607.404496771103,D
213.82136715229058,283.85696881887304,1005.0875185019033,1005.7500032425548,1005.6500001914961,18181.294795560265,16835.332791191475,16762.16200942692,14570.937076374219,12495.46509501433,13223.006443979513,D
213.39896514035883,279.96738377865756,1005.1539222836673,1005.2898933412696,1005.4000001915508,13647.03670364219,16049.913646010018,17228.797412479315,14641.408564801304,15362.345627324286,16683.172487770244,D
212.60898424001948,276.8945841081648,1005.5010131838653,1005.3910774240891,1005.4633424886664,17622.04521897596,14567.366085146923,15693.522177470679,16898.33737647515,16351.803667236312,17799.872817222305,D
212.5375486845174,271.35161533354596,1004.5540527472573,1005.4121093758073,1004.8625034579233,12718.460557303166,15228.398849348738,15373.393589906362,14441.08393370512,17821.107510483915,17638.13500386729,D
212.3278969796407,267.9580209175632,1004.4564026119518,1004.8000000241169,1004.6593950311402,20063.08623459782,18688.43955542666,18218.303073495157,15849.923600453732,17156.13041210213,19517.541977901514,D
212.5234741171862,266.94586651127247,1005.5669067382967,1005.5531372074195,1004.9016251136247,13264.341747015878,16617.4347739441,14769.296847153155,14243.262555237161,15584.343520607868,12436.887258804869,D
212.49993591402048,265.3191993707821,1005.2508304268276,1005.5531777382633,1005.150784495544,13127.263345604824,17842.852873670217,19058.845185589773,19107.683129019882,14947.829687910726,15137.872880992314,D
211.95043946515926,262.4068491600368,1004.9523437502506,1005.4125000030097,1005.6500030518209,13491.400254355534,18564.726704826906,11817.992732173927,19193.820182863383,16894.668092276515,14317.834083735283,D
211.72948538369124,257.7450529060667,1005.7002105713518,1005.1523932105201,1005.1500501768847,11995.383111838903,12190.555373131416,16468.85317459892,15437.377246094085,11631.707608163264,16444.825278113694,D
207.39680994276574,255.17082110239048,1005.7031250000206,1005.6031250119831,1005.7250001916816,16330.644290539905,16210.040454307386,15303.463226498347,15174.471781831371,17733.735391898525,17006.59527587992,D
206.88685258649338,248.6956239053399,1005.4515631117081,1004.2504943022893,1005.6500005841556,14416.248374048522,18226.947798446145,14500.376825775349,19500.01238736163,15053.089142589077,17895.502503897325,D
206.81327843584663,238.34999891434137,1005.1500238568248,1005.9500000000155,1004.6023475889331,14343.34855745891,14741.409604084412,16450.72368516948,15319.054140421318,14787.909809989618,18026.867257537284,D
206.54897824598402,231.26556293844837,1004.9097747952958,1005.1500001915662,1005.500061848778,18872.658807548036,21619.89041640487,9595.879343462266,15499.322194164459,18162.616771311008,18181.61214255962,D
206.86230086917027,227.6133542975747,1005.0843797717437,1005.7000007637174,1005.1145874509832,18216.48452536799,18421.288685194926,17468.344124381656,13749.625596769582,16797.636811459433,14583.323204732887,D
206.7647950625013,225.64876279055176,1005.1564943374294,1005.5875488288987,1005.1508301288743,14613.695172736194,14641.810368323622,20232.480734577657,18181.228649544966,13564.537810068252,13427.114511474396,D
206.14923502431753,224.1643064400214,1005.1500565531027,1005.3508010984203,1005.4500134118056,16486.905449569644,17518.50803340228,18298.765329511625,15474.637105414562,16109.69446359959,15983.212631545965,D
205.81582289942722,223.12057368012125,1004.6382875567464,1005.2258331511326,1005.2000490524533,16430.074474539484,11870.22850643699,16109.674131313077,17643.964307074806,17343.381315789455,16816.70526762501,D
205.6194033677512,222.67707170892595,1005.6500488285146,1004.8502442420498,1003.7875169875721,13549.360315340158,19248.9266843566,16375.868134432832,16693.24119957428,21942.957501944366,15363.251923860118,D
205.21706091809756,221.69997248332032,1005.0023469209849,1005.1503968633881,1005.0068359464582,13038.01371103457,14542.852293505628,18569.570876278685,18996.821309184044,16186.546154615644,13986.712854607342,D
205.27701598826857,221.4997588604599,1005.3257846839881,1005.3599611282649,1005.2023811374016,14528.736024578922,14022.650774375594,16267.340389714107,15323.76861893504,21279.384123852862,16243.071487366838,D
205.03302428413727,220.9882845851161,1005.2000159830388,1005.4164070130037,1005.7125003338015,13797.032769710084,13447.826982327464,11967.032321932642,12203.865072111497,15390.93344320374,14038.05243251803,D
205.11768289261013,220.9156126655825,1005.4031288206734,1005.4125009567515,1005.4500007779174,16225.919097325503,16364.244366537776,18126.991019191955,22562.263247707753,15046.516285346568,14075.44319552606,D
205.01477015420602,220.16686179159078,1005.500000575407,1005.6156341553357,1005.718798828187,16649.935645847843,20252.62150884288,15915.924378953132,14320.912293881353,16473.670072454483,19426.027588182096,D
205.07903621161367,219.93000061019993,1005.2125858515662,1004.6502868659032,1005.1500183820881,13594.315363119083,16190.894925537252,19103.067048966892,15111.212938002447,18606.17848963308,11661.001242657418,D
204.71712538524133,219.37390950521166,1005.8003906257605,1004.9502198696409,1005.3506113082791,13923.648322063778,16604.64542509823,17887.75445121671,19848.006022823156,20145.78611151704,13944.068953290927,D
205.3301059949399,219.03647341255737,1005.7032226563122,1005.154065990708,1004.9537598766658,16973.77176067103,11214.847333781821,17462.437737070657,14265.488942097934,15882.95485718548,15491.356198410813,D
205.30664756864348,218.68743529020838,1005.0626995625596,1005.6531250477025,1004.9375000119365,15503.721952614145,17938.720320574463,10120.365777053654,20067.731611387157,12147.698868107775,15770.087648046687,D
205.21689268748065,218.69993832912684,1005.0007959485329,1005.0541054725905,1005.4539551736943,6521.102903055713,16936.76136460208,15493.958035025786,18127.61403162129,14689.274299091601,14627.745546733611,D
205.00910458073025,218.44998782575243,1005.416468191919,1005.7632812976993,1005.2726594926983,7835.752581004375,16360.944638378744,9934.499020485782,18453.80241772701,17518.80412646297,13786.830271097037,D
204.43006485085866,217.76650716364742,1005.3032108344299,1005.6000488408154,1005.109620285818,8181.620886150311,17936.91167966519,14533.870539484513,18049.00539495138,14560.958068289934,14112.95706685897,D
204.53255225773756,217.46743648760352,1003.9125126958513,1004.5008094799953,1005.3156881335811,13384.774680885403,15139.675474968433,18661.814136781002,14593.734925523157,15236.061725542855,17337.531317922258,D
204.78561533571738,216.8705851363793,1005.2877594114007,1005.0250490191198,1004.7750583689443,8669.752287791222,18219.93833825491,23946.41839704042,12132.74761145118,21220.865354293794,16123.231834551107,D
205.02078330993754,216.14641931778775,1005.550149539176,1005.0500009283636,1005.334375050729,12516.813798066176,16150.882031832129,12165.965212293999,19159.852588738784,16193.43260161356,15360.738372225274,D
204.78229568785628,215.538220166421,1005.150000239134,1005.5031288149573,1004.9671877712187,10547.492435120517,16490.880418688652,19029.17400787261,12424.615748099981,18719.70906243684,13744.947687626856,D
208.15677827677715,215.3312522402188,1005.0878421784082,1005.1634773427317,1005.2918462754039,22487.3995059407,17273.172733714608,13133.084015478706,15718.779611538397,12598.623223971883,16434.928913384043,D
255.8650538779692,207.38009657808635,1005.6132843583977,1005.8125000000622,1005.5539063096792,18653.506999920868,19356.181058881,19932.822746044443,17756.263281581072,17360.0849268114,16518.134344849685,D
348.20475658076737,201.3748042334792,1005.4000033259556,1005.0034641273971,1004.1134971687785,14067.086488227385,18180.782220263918,11181.419607735632,14808.956323506249,13943.815765562857,20297.865910867415,D
359.1405486351149,199.9666200759421,1005.1634857208215,1005.7007820159354,1005.4000184538003,15135.563672086757,17720.95699316297,14380.280235572704,15219.045150203912,14378.01469837974,18095.494949471828,D
314.6393639114531,199.9023996632614,1005.4003417970786,1005.5531288147797,1005.7000000091432,25305.20139327802,15156.02870571314,18784.852288346683,12912.915517360309,16763.29346621989,17436.230215108237,D
227.32984992269363,200.10338159801358,1000.7330326798244,1005.7501953132751,1005.4001976044249,15132.010698989096,20120.28697012735,18136.715852396497,13792.091252443593,13311.758049079368,14701.077873011154,D
278.1206253440082,198.72083549069853,1004.0384796181932,1005.4500985622738,1004.8041017683499,11705.38652607131,15310.382929666448,14245.124151184398,16126.287486009562,16153.037274828263,11312.39019762233,D
313.7100696763762,199.37896917920483,1005.4500140201571,1005.6531250485375,1005.2179955132927,19422.4465251062,13834.134187873924,17299.553547470823,17177.526797341656,15680.202848680643,15970.732288907011,D
268.1231658400987,199.71588521327197,999.4216107623577,1005.4625124931505,1003.2697649094449,8020.155369561771,15138.603744426262,17238.839714665613,17218.931193517845,16936.820476516477,19925.324074132757,D
237.0206626433372,199.85415449706238,997.3832774430477,1005.3125099711624,1002.3822704680982,7655.418644203957,12774.251713053292,9808.902261638294,19349.9230538552,15534.8341753685,13452.809820505354,D
260.0961039579694,198.34998777982156,998.6042969550642,1005.4501955151845,1002.8150797914092,7071.106711674399,16404.49187063246,18232.663664905558,16904.684828673235,17448.853796657488,18156.963053082316,D
281.4320950992582,197.59662780558446,1001.1291613366681,1005.6000038271953,1002.3137173059138,9911.013872604288,15968.866260108509,14205.860611227079,16551.764875678415,13189.774796410999,17031.503967658537,D
263.88298260238105,197.85386905682967,997.8179148403594,1005.6033233642881,1000.3307814168708,12554.138169953647,12153.701884110646,21172.723517197457,15805.351506778892,11337.910834533377,17992.62294693944,D
232.0121161339458,196.90334575498287,993.6336393205775,1005.1656647238576,998.883085795392,12565.74472865033,16602.28824072872,18188.799324041847,15375.092071767602,20240.161333194195,15292.177687665466,D
233.69582782068406,194.44811115190004,994.3946003390345,1005.6125123024142,998.894644260934,17269.293406300083,20192.98724167906,17316.870551178523,16385.077192023127,13741.489927556988,15286.896637953225,D
316.08104584647674,188.36140230963838,1004.5039436700702,1005.6000030759878,1001.5914696500543,17686.81431529628,15764.986527597226,10928.169654122757,17801.85778463906,10295.348176586567,15031.399860054604,D
315.94869942868047,183.44843711702748,1005.8031860351717,1003.688870532266,1005.2843750002485,11782.606027050842,13627.013480197658,12905.152760963563,18211.097764841757,17851.400050266202,18082.77548863525,D
266.34151606168166,182.06647057856475,997.2419700326242,1004.4416153454379,1003.204950574918,17559.765336078737,16359.706614778606,15747.166726032077,16870.15183406313,12612.058205245201,14756.67716322769,D
241.5583995030091,181.28385424251724,988.3574054367858,1002.8356064813439,1001.7828810381048,16241.35937914201,14743.960484543244,18744.559618536667,17580.088595607336,13216.963462716269,14899.571187151709,D
302.66968969713633,179.75161456783516,999.6083691808262,1003.9002513547708,1005.012659492558,16897.146231042534,17067.32615508951,14337.097650173784,14801.181868603238,15941.553655720016,16364.635549742196,D
284.81638080265895,179.3666570135073,992.4359964780894,1003.2627726097064,1004.3532719373889,15793.604843151174,17178.979620976053,12979.365021178055,14671.577879130991,17122.94572415713,16002.455412542264,D
279.5824046143692,179.4877600202811,990.0353036854818,1005.4633310855521,1005.4502502473364,14716.93382326398,15021.76602678939,16638.265334299336,16275.12219456821,13654.781621268785,15482.155913095072,D
276.7692047751118,179.11348058533045,984.7268527484146,1005.5013672472599,1005.5031380297793,12460.726854274038,17291.087630931794,18013.51736757114,16223.630165450395,16209.253093805391,14009.808142939422,D
273.3866509565972,178.96978308359877,983.8968291636538,1004.6750490278288,1004.8627015481079,14626.575456103103,10781.111545841191,16753.406785647647,15003.523448099708,16497.699183342607,17438.97675319002,D
268.42426532899066,178.13318397806387,983.6650687559074,1004.062554339757,1005.0539558536324,13515.565386338549,13136.82975250707,16306.55037319581,14854.696806233518,17188.85419728117,14708.70012266056,D
265.73028544046775,177.7958945683627,982.3959081644814,1004.3587924026306,1001.6041164526271,16267.335975652793,18925.589142044166,16225.88591438725,16505.039443698566,17632.580170976074,15661.828396993267,D
263.0668355633945,177.883379917521,981.4225141842073,1004.8017585996964,998.2543252779124,15924.397890514461,19319.22290442565,16127.108116858075,20527.867186320073,16457.880502660133,14657.959535268688,D
259.2162292130828,177.59760111191912,980.5627515939793,1004.3588410172858,995.845750941312,18714.257967423164,16593.33046995302,17428.114276813703,15147.90550525423,17971.459921244477,14664.104734545206,D
257.7311520477016,177.88260110223376,980.4791298099865,1004.0260408196882,995.2366042874752,21016.184695348256,16144.84267137545,18606.560653012337,15165.33030208933,10665.631456345183,18540.57857931665,D
257.3960288820318,177.93334629213086,979.4002356679018,1003.4226849125916,993.9393043511667,17517.83363627411,15609.069438794488,16033.858080020058,15678.718935033394,16085.05261728669,14909.565259941106,D
257.10068506728726,177.9175130203364,979.1908746911351,1004.3588012816554,994.7991277522211,14940.274057228515,11899.732051456216,13359.440279030638,18334.12277340034,17172.61817428152,15167.984294249221,D
256.34909059090876,178.66998999517972,979.7767464170304,1005.5000152619712,995.6993345131899,12170.720875242414,16026.26493117495,18510.223290032234,17109.911948382785,15110.721998609679,13458.89666099929,D
256.21567534219685,178.41687363003015,979.2139723936867,1005.4156259542488,996.5468584373524,15422.509448211087,13507.241645658432,14547.031672513674,16295.668853568708,14356.412365489194,16477.46160989903,D
256.61593193247705,179.45005322758084,978.96645833469,1005.3501953482792,995.9467976949966,17692.223912229358,16511.362305262162,15157.595387343634,14865.075930450883,15126.02571185329,11938.580944177891,D
255.62063475792365,179.50078506549553,978.4680023293104,1005.750000762958,998.3710867804,13402.983134410562,16544.695764149932,16927.171432728293,16640.8702450397,18765.200960862752,13838.028280593324,D
255.42922847951914,178.58274357787536,977.573336328506,1005.0500030520061,1000.0325622845345,13542.940135600405,12877.418856557568,14964.832651900788,14424.552497681037,17992.117421858708,15396.56444274669,D
254.89211930234086,178.17390945505934,978.0291269583031,1004.9002017498202,999.765647241318,19417.121474140855,16265.126176063844,16967.67302450876,20773.82158474983,15712.23298242098,14829.027356244076,D
254.48976645093694,177.88352864569657,977.566669733346,1005.7000000477544,1003.6705080652686,12940.418784680365,15185.633185957526,16670.758444683794,19721.84266408816,14727.950324825262,16560.049287690068,D
253.61251524998087,178.0708697160585,977.5809839898909,1005.7031251939634,1002.432669417439,19210.22063943519,17633.37771496646,15937.720447312086,17363.856329531234,16409.631294723473,15487.17928776085,D
253.46177068059723,178.6042315314134,976.7756590904161,1005.7000488519968,1002.6918344177863,14455.900242555837,17491.288174165205,14997.045992477477,12941.806453585486,12690.006172037718,14470.099528465513,D
252.80397055849494,178.43079101268464,975.9984678387161,1005.4511353016085,1000.4792155842235,17886.118213987334,13979.04317507873,14776.865310858648,14869.958908080062,15888.324769348215,17535.435906511753,D
251.6476427431444,179.49687594231918,976.3003344971124,1005.3531875621684,1000.4128960441255,15707.68712638958,16004.582723633459,12191.158420214884,18897.502709281896,12968.30079084659,10456.781854751982,D
250.56502670945287,179.89907241179958,976.1472229241035,1005.6500000007647,999.7977949448612,17548.690106567195,15505.985272243455,18262.527198876036,15093.182321291466,17339.951376156183,15048.517631565075,D
249.8207191982411,180.0837524883366,975.9742632579231,1005.4626995094284,998.9509121968731,16666.05563486151,13937.413215044688,12219.903059173235,13118.8950300932,17524.674294859382,15620.320960102381,D
249.08606764872872,180.09610290220567,975.0585590027453,1005.2503906265543,999.7832549750159,16226.133650336269,16246.447273499498,15939.870547501947,14472.08041507981,17361.580299654812,15567.024116819206,D
247.99686192371973,180.33411846101703,975.7550777161135,1005.25097723088,999.1312730423649,18683.044471657566,15521.3409820326,15481.85866480409,14357.74975265109,16646.426698355084,19871.355181154642,D
247.79153022719728,179.56744385086026,976.2563560611804,1003.6531754079315,999.6298524126903,12589.463137910887,13493.973352211178,11865.971819542223,16284.447492038968,14609.668774259766,19947.686853462073,D
247.2166514324615,179.36269632900994,975.888422334761,1004.8668365987298,999.5578136176762,15944.605897365385,18172.068339591126,11598.399929706076,13625.653424921253,16073.961339412583,15421.112431665908,D
246.72902042047963,180.44667939971174,975.463032907454,1005.3500030592252,1000.9133059809008,17545.660606218007,17810.51607801792,18970.66588487439,16994.992341976387,14591.31581533315,19236.699656612553,D
246.67868852792714,180.699154411758,974.9515907522934,1005.7125000003938,999.4004230072944,8365.347814619865,14975.613758617783,16230.531876815836,14172.451074438763,18287.306563067086,15434.15570562084,D
245.74350460096676,179.41349187293713,974.6724516526135,1005.2758301409642,1000.677103356513,15113.879670921408,12529.166310257602,10668.687934896192,13127.284524294306,16920.188470066336,18960.36091588834,D
245.44608110183407,178.93151041964893,974.4915685871438,1005.5033203244453,1000.754241244707,14696.250657130495,15789.146352629241,16150.172345172683,16827.368689034593,12315.672460747815,17818.520056895566,D
244.24161301052246,177.7304526647891,973.6811600573131,1005.4554718405192,1000.2009590717687,15100.694940203544,17222.511047450804,14821.464715826372,17634.338311168576,19756.58481280493,15414.341780286117,D
243.8823067304289,178.3833211254977,973.9134843491316,1004.8135076526721,999.9357840380592,16177.709462135777,18198.468407542652,14996.66819085722,15842.786085987807,17124.174659700933,15504.557119403562,D
242.37895121237293,177.6365224800765,974.1534844602089,1005.1158268035194,1000.0709634443131,19514.650115070122,20945.04377941779,17737.56823476102,14793.602319490616,12221.633998882666,15782.19721133725,D
241.8532859799002,177.05075454712474,973.356919035622,1004.1601943585841,1001.2102245959126,15146.690329095203,19414.09503674488,13710.132642845743,19599.971910589178,14512.068229155275,17366.405095079648,D
240.13334524437965,176.1166628483045,972.524815937895,1003.575711274166,999.3329851236979,16233.365400453516,16729.634270810475,17504.64079597691,18658.304873051762,16547.633472239315,15196.328381508758,D
239.05000017899133,175.91982905163314,973.637002024557,1003.7594032831787,1000.272172141746,16322.727895191923,17166.87635188175,19178.5430086576,15433.286372432989,17265.578083594082,16142.334349025696,D
239.14907231014362,175.96603501464114,973.4077146381147,1003.9596348415993,1000.0885647935418,15097.604526637617,16849.579660788866,18208.23004758499,10697.888356532621,12068.147257873114,17804.28334931668,D
241.51772295312253,174.94665125210184,973.9799755688275,1004.604898202622,1000.3826944546297,18588.826446774125,16668.685675939756,14556.342278671105,14541.311326739018,14007.008930583866,14779.401725722713,D
266.36310063369245,174.10019550349034,975.149793674881,1004.3878238679314,1000.7669050519587,15839.621618628134,19573.14853031831,16828.212345917356,14529.37251841563,17302.57486584886,17375.007956822858,D
270.85426641721676,173.26355085974006,974.7363178917592,1003.1317156800372,999.1272458260361,12138.55307471635,14081.89926187698,14260.079776649325,13797.284127610139,13267.4815403093,16128.260657354094,D
364.51301594938457,172.28432205178342,989.4249297673459,1004.7002706639629,1001.5518624474113,13169.969100950591,16455.41231004311,17694.604965834787,13811.42164003538,20755.307892252167,19834.9852420257,D
542.0403451071068,170.6188110865359,995.7122061569271,1004.0312048435908,1005.6500389099276,15068.730223151957,16517.591444836235,15571.364777900188,17614.854015121742,12029.624413520009,20032.0862062694,D
600.8616106160739,167.76025911650112,997.3936814620974,1004.0035776146036,1005.6014160156419,11303.867581305682,15053.78080692783,15113.686908715856,12390.647197195834,14772.738493364255,14726.902450012334,D
601.5325764013611,167.70039082858779,1001.4140936309707,1003.897734484193,1005.5539065838248,13149.87100219776,17373.00277136781,12782.420221858138,16009.13203745464,16929.27456712421,17009.247989761592,D
609.0591631606721,167.80235539978065,1005.4132942229664,1004.2449655087246,1005.1500488304225,12706.27850338674,14113.419880316409,17438.4435831818,14295.03949669666,15293.56948753408,17213.08662673067,D
603.1916042955638,170.53251954795164,1005.064268162862,1004.3898804791581,1005.3025398257439,16214.754271038943,13434.654264390492,15890.892879737567,15975.953584600178,16494.478010470728,14782.136765506217,D
600.6172409455414,172.86673165896883,1005.2031280998499,1003.9707126902225,1005.4531274795745,11908.280965104757,15294.005597925832,17005.084973811136,13631.972171224406,11814.648847702852,14502.516880135521,D
600.0504085206125,173.2287272016212,1004.8523773700214,1004.5036026479978,1005.2880867004578,12769.564348943248,14026.515854979854,14650.658543131489,13500.40320324207,16523.29048119157,16557.29065213626,D
598.0308822575383,172.78229477808054,1005.6625030547551,1004.6111452298546,1004.9103516340701,17315.972541846168,17492.631239049293,16516.21333178244,16396.79088868452,18771.245131807264,16048.397403239771,D
597.6691179704796,171.94609273196062,1005.4789154530308,1004.70979419748,1005.3564455151834,17183.44942671944,15126.686703714138,18914.020103551786,17598.533823936697,13850.762501604424,14104.435702075169,D
595.7994960979837,171.34999998820663,1005.0031463646485,1004.4156894129901,1005.5501986030789,18996.571214734922,16712.873567055394,16030.149884770779,18149.099262686064,13244.214448078666,19847.481409692726,D
559.2147526510392,171.48646864872617,994.814808070475,1004.6673862817458,1004.4537551999372,19707.146372686395,15632.745523198537,12291.120779441855,16638.077950281942,15287.030661511099,15194.427928414414,D
438.24674447363094,172.54171873812902,999.8328004987694,1003.9762333424002,1005.2281257633274,15800.17661488254,16707.553110214434,14852.807242874671,16617.20679841508,15715.941528202713,14701.19266329712,D
388.6374071775383,173.10085551316533,993.0916871309868,1003.7411627459385,1002.8652257888374,15604.24359778926,16147.999988926735,14712.95190396331,14398.76218575117,18316.222496948834,15680.243720889202,D
383.3105599402147,172.96687419810988,991.6717999995046,1004.0884280758253,1001.9572674436871,19364.563514252128,14505.773069805951,12925.705508181849,17259.752714689705,16573.28356034609,19552.440034405437,D
380.1876471541995,173.26665239353116,990.2999744423381,1003.6758370591608,1001.6664590914979,17205.130452235164,15411.33781896359,14263.060090317824,17897.461630544283,20647.62703818219,17895.391619167014,D
915.2768441304388,1005.7002077104707,1005.4000001788614,1004.7427803240889,1005.7125030666746,18337.485875194685,13676.875583703473,19597.23455062722,18008.43123138863,18185.247195114636,13913.851332282109,E
914.7578471777539,1005.5523559571059,1005.5751991629755,1004.0750868354622,1005.2009924069243,16442.291595536975,19060.65959143037,16484.278596253847,16598.279045830503,18197.088750291055,14080.167187280715,E
912.1246073047159,1005.7001962662022,1005.4002441885456,1003.791494192377,1005.2007852928876,18783.52077516504,17317.5458924855,15197.823097474951,20476.42560881987,16917.858375428415,17498.870768289748,E
911.4187088321262,1005.5656341590144,1005.6500001908116,1004.7007868801878,1005.5127105744247,17933.646236831686,12340.02480220616,15933.9633380562,13791.969966687964,17107.773155821942,17065.915541512946,E
907.9140085375742,1005.7031250119511,1005.6500002408554,1004.1013742989164,1005.6531260132946,17606.891032917287,16744.377228524,18490.310170334793,17635.95741634695,18704.718893203397,15565.347563453417,E
904.7783521321664,1005.5142578244458,1005.5625748165106,1004.7016757101692,1004.854742512123,15930.081457538914,16434.762512817437,15295.57708849559,15519.874205075404,15968.536513507925,15328.292800566127,E
902.909588186901,1005.7000030674196,1005.3000009657511,1003.7640700168133,1005.453968063385,17626.568543858604,13269.676481964594,16486.287434220227,17572.611625120837,15541.097165466981,15923.288405490495,E
902.7985339364856,1005.5031257661228,1005.3601566464329,1004.4541591656902,1005.9000000119364,21624.055988203076,14354.035918645051,19160.725036395354,15522.666811028535,17762.69998426314,13084.237772623092,E
902.5644780173125,1005.4029304571607,1004.8144805908826,1004.1658569813948,1004.9642089874172,18750.27460632899,18283.115261905026,20777.831558826307,14765.97799582149,16973.972517398033,14031.315894697755,E
901.3506100033862,1005.5502960920954,1004.9630869277102,1004.36963216744,1005.3129394652515,17314.972077810944,18258.486278976172,19471.93938968573,13122.508942547433,19004.254950818526,18674.377790692644,E
901.1084202854393,1004.8506348639942,1005.3039794922154,1004.7640667326975,1005.3125977159059,17080.23525466682,18322.371068662935,18853.866471407277,12931.591656746807,17096.621516132833,15372.471134255775,E
900.4992429670028,1005.6000000508773,1005.6500040062072,1004.6191810742239,1005.1375491621131,18114.32177134367,16317.931696428506,21859.612492713928,16943.608646399436,14634.785439679186,16559.95733804395,E
900.3954466086095,1005.625207520292,1005.5500005759716,1004.4646523571416,1005.450110650858,14586.42298917191,12137.052922944833,16911.067953791233,18059.504614732676,20557.263185664568,19115.460143496115,E
897.8749546611813,1005.2751953155919,1005.0588869335285,1004.5157264957754,1005.7031394958651,12255.477628239743,12574.1103006548,14810.390112803138,18293.81754967818,16414.84352941918,13445.93015122188,E
896.8931349382954,1004.9875488400733,1005.7507812626816,1004.6129663721429,1005.7125030518694,11284.645973514882,18059.21137959749,13262.977827538165,11582.334322211847,11634.375947972841,11685.090653958268,E
896.6844442332671,1005.5531494141842,1005.3012365825747,1005.2033233803015,1005.6500000029966,17475.183137732914,11414.587460539135,14470.549992198003,14812.170984494052,14486.710273837132,15750.79795399361,E
894.8028899658002,1005.5658203602343,1005.6539581328786,1004.3137084965438,1005.0506012089758,17330.34920475846,13783.436850016107,15171.60662780076,12006.542650521526,12674.699577374438,12495.915591355635,E
894.7320582184695,1004.7304688461418,1005.5500001460478,1005.5007942207692,1004.9001647949957,13422.12520816134,16874.815938742096,17037.23701645796,19243.164335251022,13958.411483942822,15260.85362884097,E
892.0286274746501,1005.2508362293572,1004.4006538900143,1004.8102112502498,1005.459375238436,19173.770828719433,18963.51289867148,13557.818487923292,17214.90954601051,16019.768910017412,15655.296532622513,E
891.814343755256,1005.8500122070469,1005.6126983658216,1004.5246952187841,1004.756250232823,17210.797009874725,14339.064899331153,19615.770432342073,12901.421613547685,19038.943145368088,14850.871925168705,E
891.2434069602383,1005.6634765633187,1005.4125036724096,1005.3516149563869,1005.2142732622381,8203.498357798237,15942.360570838599,14212.850193940807,17971.946037913207,17806.056328240396,18519.47818108231,E
888.7368728272106,1005.1548248529591,1004.6633348041836,1005.063502311722,1004.4574700154637,15888.938205102037,16979.010544802404,17194.77710345202,17783.355034383654,17966.924596575558,17711.05181818688,E
888.3808572374398,1005.2502442365756,1005.1505859941459,1004.4625095488748,1005.6625002056519,14046.13665371951,14717.131522017702,18813.581857631983,14533.512784055492,16209.296219409302,19022.649105350556,E
887.9419486275598,1005.1531372428584,1005.5004403621579,1004.7976688865147,1005.512551903754,17673.844382690593,18551.290720187677,16649.222646703223,17010.179832928032,16499.50546477912,14905.918771727924,E
887.6494378688061,1005.5133422883879,1005.6781282432532,1003.8649105087155,1005.4531251908909,15950.916113474246,15497.298019999802,15140.959234593494,16134.308212462754,12246.146850217468,15741.35347244676,E
885.9979990870772,1005.663281250039,1005.160168522612,1005.0250000613493,1005.2125000090143,18533.835272156146,15030.275990598482,13802.064270186887,12858.270091104287,14934.21503878541,17703.107942401835,E
885.1519814522411,1005.5125244200392,1005.4501992145708,1004.3008933166386,1005.1525513174638,19166.514412178596,17700.957946796352,19125.525578253146,16752.282802000816,13396.319458503975,19567.30318564715,E
885.3933783204824,1005.3165681861962,1005.4500610739171,1004.7195353996027,1005.5625000030108,14312.683785736644,17847.49985921816,15911.284798178944,19694.283433966222,18610.357209916132,19813.61966172838,E
884.02286701019,1005.316411638322,1005.7125030638833,1004.2511757913028,1005.4160156369387,15837.58047904147,17278.772030067135,17123.28506689483,16921.12153251077,15966.485253470277,19226.745758671328,E
881.6669422844483,1005.2001710921717,1005.2533755781318,1004.488385153717,1005.7501953125744,18689.77033562802,14654.99542665743,16750.182333016386,14585.20629840249,14004.413943064505,15654.020996509536,E
880.4198584928029,1005.4500024557414,1005.6625000006325,1003.9516209177946,1005.4750253685448,15690.840190266148,18514.410181359483,16521.343807548114,15309.357317998463,17433.203363748224,17112.555762842938,E
879.491097052672,1004.7277713777778,1005.5500007786165,1004.3561544418793,1004.4353614807408,12886.876875713799,14472.265948092905,14589.57907237717,14548.289176412238,14530.669217670065,19088.967380006783,E
878.087101744024,1004.5562500123208,1005.4535156727036,1004.6289130457377,1005.2508056666866,16092.658479606569,15138.422821320637,19072.691923825365,16006.834737068832,15332.05498979227,16004.98382625152,E
876.7960813715711,1004.851563454636,1005.4016120918271,1004.5633842707797,1005.2297060042777,16171.344662201136,19797.186223877587,17867.043463695623,17418.016917289864,16088.659235375595,14867.127692885319,E
876.0358768240412,1005.5001953408424,1005.1767578244829,1005.2501464971504,1005.5001587035756,16992.39171601852,15569.306466798249,23799.451622535027,15001.988347308015,12065.975496351239,18457.792222960627,E
876.6436510356227,1005.362515263043,1005.5656372606918,1004.9140962630784,1004.9148468511333,13571.844916590635,18425.479319327853,13581.01518901753,17692.636822631128,14763.756806239026,17255.478710087154,E
877.4872659532335,1005.8500000000191,1005.2532844067358,1005.2501617432406,1005.6507965096077,17875.61518345704,13878.7295976996,18815.81028005228,17869.765199432444,13071.318432523387,13393.667178944157,E
864.278193892713,1005.8132812500156,1005.7500124454682,1004.3526858927501,1005.4000623716313,14463.21173778183,15424.185498369527,14609.83475070164,16778.258194194357,15193.954189036838,18683.569856608716,E
863.7144834247983,1005.2014801056177,1005.6510269167056,1004.2632916100623,1005.5626955040101,14169.701829060165,15650.839421551345,16107.643594050718,17683.696861465614,17446.72136845292,12898.95157522666,E
863.5202872957547,1005.6132813215878,1005.5509765768695,1005.4502075208518,1005.0500131610703,12874.416469724343,19940.34231357864,16059.926079544844,15224.107957959215,13451.55094751461,17346.957001694616,E
864.0369483393748,1005.6658205270921,1005.4041061403735,1005.2031738296844,1004.9375093021297,16584.636318760713,17591.481511068403,18736.680221423663,20458.34875761238,16257.388509218556,15034.041100185428,E
861.4892034168661,1004.7533203365726,1004.9061160744802,1004.9633789659807,1005.2000526560654,14244.957351427647,16096.560849457022,18532.125497120636,17591.191716517907,15351.504429621698,12114.943940656096,E
862.4702155143366,1005.6000527054255,1005.4023949265753,1004.612503231566,1005.6002929697086,15171.365952734322,14747.986854901063,16522.423379209733,18184.319183181207,17196.23262540205,13567.442516884203,E
861.8564769902065,1005.5156280879552,1005.550012302426,1005.5656284488892,1005.5500156529412,12070.874869985999,15900.26539574841,19884.08990559537,17347.12798101119,15125.502879248077,16074.389278752356,E
861.9642134938625,1005.5007967002852,1005.0046936042769,1005.5501953633745,1005.3500488281916,14632.381249315786,17325.73976560132,14990.6583020911,12726.162417898802,18042.604431889853,18378.480962322676,E
861.9909193698475,1005.6132813483633,1005.5000000151504,1005.5507906437106,1005.100219728688,15793.044002667808,15576.041856192725,16605.912575052607,14685.668969229635,19094.73895095712,16212.25118927045,E
863.9154704745021,1005.6156288147215,1005.718945312562,1005.450293159515,1005.0041168213047,19556.86724522933,16966.412023454577,16854.393120310837,16532.189598234443,18436.227658423315,17297.352993912842,E
863.2017481571208,1005.4000518918353,1005.3726564409369,1005.6507814444874,1005.7656250119365,15766.571022353039,14760.136735580008,16403.764836912727,17434.466756306174,16803.293860404585,13914.428829816039,E
862.4406939740084,1005.8000488282336,1005.553190040607,1005.5135742307448,1005.5000488735892,13598.608370173515,16238.291343082465,17674.303309522013,16349.466408044284,16929.05148006112,19660.001567961102,E
862.9540961840994,1005.5132936626836,1005.6500000119602,1005.5031741283989,1005.6501953155079,16793.180594384707,14676.040725196237,15484.308582875961,15026.521004626635,17199.84349290821,16475.152919515454,E
862.8172370652383,1005.4531740548362,1005.3000492941279,1005.5005859764449,1005.212512934471,15291.38448070351,11843.41496997448,18004.762256569047,15593.218996827756,17454.51040911978,16040.822523265966,E
862.477493239259,1005.700052643769,1005.3008331955136,1005.4601724626658,1005.2501983852748,13489.469563321181,15743.19189631097,20926.828513987344,14822.6397076408,18659.644049981725,16609.882330314376,E
861.5345497675137,1005.450992778716,1005.4539095431722,1005.5031257659351,1005.7039070159817,17305.809664665012,17487.521893186076,20779.423694231966,17551.802094113333,14905.717882903267,14321.194347427294,E
860.4582917556323,1005.3501960754554,1005.2539704323697,1005.156457626836,1005.3656259544359,16122.192291215772,13780.097009807661,12801.65416581266,17439.570613790922,17968.405996768633,16457.63689420835,E
860.5881197604542,1005.2593879700446,1005.3562507629549,1005.3679819124003,1005.2656251907622,16621.34553569381,18446.585542179393,14027.956539092813,17639.85749237658,17312.203654450397,14753.21734354919,E
859.9994508953254,1005.6500489712498,1004.904310072229,1004.6132083419867,1005.6500010967411,14438.114330005046,16135.977139934403,15795.072478800526,14937.654191165348,18043.47011869825,12898.453967109204,E
859.9735932022546,1004.5265937984634,1005.7502563476746,1005.6502441413861,1005.5500032523803,19203.43986184722,15502.95818242725,20899.964744278142,17636.113264320295,15172.728195371707,16359.048795540099,E
858.851198060669,1005.7375007629665,1004.9158517368767,1005.367969563631,1005.5500132205134,15132.206752869908,17281.276741173122,17791.017884852707,15528.781040124752,17708.537748821836,14437.267495305918,E
859.4489271415575,1005.6007812523445,1004.7634410955197,1003.3168000181374,1005.4000519998992,14308.297295108274,14847.666028781585,18344.450759233303,17581.033018892376,20385.913465628448,12387.043492934434,E
858.2176324789932,1005.6000496059811,1005.2000153118557,1005.6000495919649,1005.7000153064886,9197.168878163675,15769.241631028057,20656.095723120092,16256.971633516281,14405.390242489748,14372.641526992582,E
857.9635839140919,1004.7539065115318,1005.2383302688786,1005.2664094980992,1005.4160163998768,12924.95977924648,17159.16917042082,16369.665135448255,16582.95663853846,14658.411897881382,13345.497463682477,E
858.1508296212533,1005.163537597922,1005.8000610351719,1005.5093902617853,1005.2289337248233,14450.70051076726,16146.565506110943,12549.818855545125,15430.941240639415,14644.15219743369,16658.316975708378,E
858.0142617476891,1005.163281306702,1004.853321124828,1005.4023437709586,1005.8126953125184,20543.53950726451,18968.574656158053,16443.04496538417,17278.96928323661,17468.054502624334,15207.547330304515,E
857.3484382207713,1005.1125184031476,1005.303125384652,1005.3806642621912,1005.1555664199593,18169.633166822645,16936.93578816684,13573.220729349323,13652.42913857702,16442.417465027484,17076.154195700452,E
857.5731231805543,1005.3103653200135,1005.2500200659193,1005.7007812619865,1005.7625030520061,17017.288476891612,16987.14815709412,12758.496765857246,14632.13016504077,17649.775680931434,15371.039024044681,E
857.7567279990965,1005.10106430138,1005.5140655667328,1005.1000371992939,1005.0001983897479,16999.078993212803,16416.105929017984,14890.085093304335,17356.31977075386,17360.479809047283,15126.357000824999,E
858.9681218716938,1005.7132812621228,1005.5626992227666,1005.7626960754578,1005.3002230644615,14499.316482341597,14958.24458314264,14872.881899310803,17568.70976499939,17633.900610707176,17427.353397629235,E
858.6324474744785,1004.6751861604173,1004.7219635131111,1005.3103519492037,1004.8128940612262,18535.288593712674,16646.825752838962,14906.629556962322,12039.101649105292,17262.095900227105,15062.837714157387,E
858.1341680151867,1005.4125559806978,1004.5571796449063,1004.5641747000793,1005.1593751907569,14248.799117911854,19421.38159930147,19046.21463107178,17371.945970189718,16755.273068508515,14381.890448368958,E
857.0700274566165,1005.6140625715876,1005.2680175790749,1003.9289154354043,1005.5500002623224,16839.06482007243,21871.21856654388,16320.51252678705,14361.51980717743,15873.304724203335,16141.33547632224,E
858.4430958434095,1005.3003067115485,1004.3000007792765,1005.0376986046476,1005.700051879945,16287.617213114423,15680.839287751802,18654.390564782236,16206.740888220873,14592.60231678237,14549.224998803125,E
856.6775964987398,1005.2508331299914,1003.8000763067679,1004.8586427748539,1005.1582405209726,12319.384127645015,21124.810016769487,13318.06839966175,14195.750397913474,15016.849886590378,16920.65843451395,E
856.7159399674032,1005.7000000000171,1005.2031740189926,1003.558242821992,1004.6546997235225,18668.71719639969,15883.34734240803,17037.2453998371,18699.941973851186,15447.900903208152,12323.600497145759,E
856.8857402141635,1005.4640751004374,1004.7656281233752,1004.7502044804711,1005.5507812530481,16958.482043055876,19234.087279275198,16288.132662853877,14984.631158692519,13674.62064505828,19622.810048134408,E
856.4823821042701,1005.2033699516371,1004.9593750006297,1005.5031252153374,1005.3033294723524,15044.045342633404,15891.814784338267,13383.69768389542,15564.87883043037,14157.217731788192,15002.852783822313,E
856.5831029711384,1005.0027956188239,1004.9126479657989,1004.2500008112905,1005.8000007748875,15778.6477203406,14022.987099419803,17207.02674016935,16354.586220924426,15678.194007173632,17004.080867125824,E
857.0195964512337,1005.3875006201017,1005.5625610351863,1005.8000000001551,1005.7593750119364,14690.305703382232,17902.827152615664,17911.553694287348,15071.497384480852,16977.400102782973,12648.925349955185,E
856.5340171768778,1005.6025390632636,1005.5656251967139,1005.6525391221201,1005.750052643024,17761.373400712033,18136.973322076654,17100.11316135533,14373.050795873485,14517.223605081928,16174.959776111511,E
856.8261378931787,1005.1664314866257,1004.6984497557435,1005.6500495910916,1005.6505981445586,18081.250581838533,20372.92642327791,15852.766917121655,13128.426319045344,14584.123822327363,16166.6497440529,E
856.5702580749269,1005.6000000030459,1005.7001976013346,1005.8500488400614,1005.300195503625,18229.43513668562,16633.75014778756,14611.904442269148,16579.955730490503,13244.568961478955,16438.580333018315,E
856.0419330135541,1004.856250000036,1005.40312829039,1005.8125122070584,1005.3033358105265,16240.194320099592,16347.883290319034,13835.55328349194,17221.163075791053,18978.39429238097,16212.228473733212,E
855.9302085265826,1004.9531260112688,1005.5501953131094,1005.3024994880118,1005.1679689415281,13477.586053704534,17630.557683936855,15734.165833064853,16982.233694540886,12319.95189003785,17631.614094247954,E
855.9333186496369,1005.4540527828689,1005.4500030518672,1004.9133323673053,1004.9125000511115,16586.80806570838,18015.928012588152,14303.923299022286,15054.736056636635,18959.460077775468,15962.030043502546,E
855.8418893698057,1004.0564674961072,1004.950867557635,1004.650245827522,1004.6000106931062,15057.372818480173,15676.878991408239,14032.797755126816,12282.580864284086,15139.139731426712,12629.64640975957,E
855.9553692608458,1005.0688064575357,1005.7500000119838,1005.250390815802,1005.2035280233406,17688.95252688643,17822.66910507357,16326.53460669714,17391.013578870035,16352.534997233583,15326.250998636111,E
855.8221419274092,1005.3509033203745,1005.4000488879346,1005.7031251908114,1005.1039093048478,18059.799939540833,12285.621609339581,15754.603410961601,15662.43596382787,12544.326960885595,19069.029583105636,E
854.9606681389389,1005.7001976490176,1005.2630983382651,1005.2031349185543,1005.6000030519714,15330.481149804778,19342.35398103105,15648.395995262807,19159.079770213513,13074.090729029698,13106.282610571836,E
853.8335930822817,1004.6000494888476,1004.9062778600697,1005.3000017168155,1005.5130859406906,13816.94119381838,15931.587220352128,15642.122833894133,15773.680856167037,12640.96399245772,15489.309082456297,E
853.1392578145302,1005.4001984328652,1005.6634765625192,1005.3631263762876,1005.3521608362216,14207.862374027638,14444.235383607549,15111.886046966009,15896.300860204128,18414.126858809963,15552.780234301666,E
853.0499862067848,1005.4500488282076,1005.5009887792907,1005.0719240309827,1005.5773437507663,14469.731510177726,16307.056549435389,15025.109716894653,16692.29765643839,14447.903153332498,17848.4569567243,E
852.3379354061733,1005.4883302808312,1005.1480560451901,1005.1187653452314,1005.4697265746576,16744.279133012944,14863.479166309102,15991.99841010895,16290.801834856966,14244.279321797265,22035.87701758653,E
852.7464810692342,1005.6039066315,1005.3541139722571,1005.5500528820015,1005.0011597778921,14805.91742979259,12751.549956963181,13207.160309248127,12553.014755990023,14861.06358060653,15298.403260104864,E
851.4844599167966,1005.6054811477823,1005.1031258141893,1005.762500190797,1005.0503456123381,14376.83525336025,19480.630473939316,17874.728824451497,15414.40423736712,14029.49210215743,14330.988511377314,E
851.6638816610008,1005.8000000268376,1005.103125047893,1005.1005044945323,1005.3097689153352,16149.21192209715,20727.118290464925,13264.59964645927,14229.845757373154,17047.054520554004,16175.24965419404,E
850.0347818774369,1005.1041506057767,1005.3570327886185,1005.5502235890057,1004.8531738301948,18521.065459636717,17317.24480217846,17729.112509024708,14156.2868982033,19418.989119866048,18362.529139190257,E
850.7628083288831,1005.8010253906405,1005.1006023416458,1005.3656525195063,1005.7000030518548,12481.742948730385,17223.974274635526,16157.648406499817,12963.612959534514,13766.86904673235,17767.32934918224,E
851.4121693160754,1005.0125702061445,1005.6000213742442,1005.5531280994607,1005.3025396496345,18953.695856298425,13773.754824366737,16361.610162450621,16697.815110642336,17104.728813602727,20681.378326482918,E
856.0801492524643,1005.2033210877144,1004.800012445768,1005.1625000002092,1004.2033233679288,18332.046595067302,15022.326321987493,13657.184806939826,20500.991441521335,15816.576978638946,18081.679095833737,E
853.8031234621494,1005.0351563603512,1005.421924212789,1005.6627449035917,1005.0000976819817,15626.1277977079,19990.596985225064,16861.170950620457,14252.889090499235,17602.502590353484,12919.613442268947,E
852.0744038634095,1005.650110054218,1005.4156375438163,1005.5656776548082,1005.5000122191692,17536.91452061077,13261.380191990256,19383.493931523466,16547.34582687605,16488.365195479928,14726.034680173378,E
849.8792199735759,1005.400013026647,1005.6093750000273,1005.6127473831455,1004.553125110299,15457.845581371168,14221.660541370471,18422.83100981669,14968.513173289717,14153.092049900233,17493.73729081118,E
849.2353292530175,1005.6005897522164,1004.9507843618109,1005.2626983680933,1005.0657112725237,17713.47467067163,16189.545930087206,16152.95050998696,16521.01859918556,11522.4344626934,15783.202485472226,E
847.7878438574177,1005.4064483732142,1004.7035156764252,1005.4757820161221,1005.6039062619373,16328.935674576462,14619.707964192809,14755.82975564735,17182.394329177892,18418.06620827561,18894.063287224915,E
846.9408753899697,1005.2031780369741,1004.9509771824418,1005.9500000000155,1005.5500495912802,16038.664713055701,16787.71748847841,16266.539723399668,16629.877088927875,14402.722648790013,14756.500853068941,E
848.949007408902,1005.4125123503429,1005.0625000000857,1005.3500495910815,1005.2008304270139,17435.67684702365,18402.19965498723,14694.135854851454,15398.966283268612,13374.12358591191,10544.756875733428,E
848.6835290686931,1005.8500007637,1005.0125177386896,1005.4562510021739,1005.0564470293655,15364.304994603352,19250.542276968263,13799.713245036666,18233.601262432498,11855.117765950237,18027.91472615201,E
846.4549961756042,1005.7126960762007,1005.2000007899693,1005.4031284906126,1005.5625062944757,14365.463020623492,16092.881443276337,17773.0878058592,14800.360563731254,14124.65109462004,13234.705357610927,E
844.5840695569259,1005.5009887697448,1004.9041020900816,1005.6507935526006,1005.4509890079684,18779.97469588089,14449.932590493529,15045.895393930594,17060.80935802266,17108.8439773825,17116.966938440382,E
845.4053811521268,1005.4500644805152,1005.3132814299004,1004.8099884033361,1004.8531631849862,15458.869821837512,16716.66409818801,17951.680864367463,15431.01102186371,15090.222575385415,12321.878504281714,E
846.9465097056606,1004.6136719237477,1005.6125001670947,1005.0533203132779,1005.5031372130073,19217.786990725035,13640.808315333106,18882.33477339152,16119.17864313974,17480.92204762185,15333.496509785164,E
848.5283288231183,1005.6039825439724,1005.5093750573851,1005.3532234668894,1005.4750008225719,17289.615734161103,18334.11342069977,14299.185403697218,18604.08562120262,13863.678855584643,16318.280487699443,E
847.7656527149317,1005.600005355493,1005.4500007629609,1005.4047523498718,1005.2500003837679,16563.325108054025,17290.03881772971,15377.922474499617,18379.818671793993,16819.376440503063,15984.974898936693,E
847.0917577963985,1005.5003913887591,1005.2539673718313,1005.3187591583389,1005.266421509634,17752.72829400567,14472.695742641376,15404.359375059314,12832.224164791798,15394.314558080552,17807.037946908284,E
848.3364866307514,1005.4626962662394,1005.2531443134573,1005.2007820701731,1005.356336403898,12882.619443075471,13907.472304370318,15770.580136062646,17653.96984763279,15577.692261252823,17012.917918330408,E
846.8042186818051,1005.105712986043,1005.8531250000162,1005.3509941101702,1005.1657379806196,15776.005905682934,17769.126161989705,17787.50452443929,18515.273851408885,15822.141735813231,16722.027714259737,E
367.249809158819,1005.6126953164388,809.0805746536043,1005.165686289283,464.01235625536066,16157.359733204172,17329.624399602406,19437.507235525227,16200.784855759572,16785.277137440287,14026.154741530521,F
362.87568128173035,1005.7001953125739,802.8921773739148,1005.269728136113,443.88884857035083,18306.009302085142,15076.94388933487,14485.74740100734,16454.88348041333,13356.258334859225,16916.624876111764,F
351.0324263922796,1005.2507848740254,793.8851035123172,1005.5656280637643,405.7372424073725,18976.331005627122,17988.344365226094,18763.262260065057,13208.543142303208,13320.823748808936,16110.489158988727,F
350.04269536462164,1005.0500001910448,790.7752115009495,1005.2500038535488,398.92186193382145,11380.903525242158,15045.167493681514,21332.36709120513,13050.715214501515,18004.654277555503,16575.659425195845,F
348.792537771773,1005.300293016656,786.0261388081465,1005.4000547412967,389.6197376699865,20181.965500594968,13984.128389724327,17580.40946768962,16864.454731531085,17907.612106092856,17931.459733759733,F
346.2720408421871,1005.4000495942088,779.2770658977886,1005.1508333251275,382.7492174757061,18634.994007855126,12833.659516987242,15983.582372664616,14460.781231466772,14118.165603581836,15141.111734922888,F
341.62232763022865,1005.8125000596201,772.7760668241701,1005.6000032428807,377.19601139961645,14521.332077035786,17466.397195189922,19493.035999344524,18984.033336085755,15849.31859737141,18510.92377143511,F
340.75753666563946,1004.6034271481137,767.7375433031937,1005.4617197036899,369.4037680979236,19092.015026865065,13977.317818701533,15469.800099494963,19427.727120169446,15340.112347027325,15010.4643707913,F
338.1352823451756,1005.1031372108191,760.8374500076676,1005.4625007772972,361.5352106704639,15169.822279579012,16705.76248769813,16095.218324512554,16274.462390905765,15367.960800695266,19601.224898987566,F
336.8968786024858,1005.603955081179,754.2709569271528,1005.4502441429361,349.37061421421936,12004.585381243003,12873.266008747607,18546.736780125757,20231.743182139773,15837.72228106279,13681.126195569033,F
335.1634224720979,1005.2026002526557,747.1273744444894,1005.4501976371005,340.98631772255465,12507.715473911954,16319.296066985713,21119.07267058924,17520.44898935993,17072.294172587288,17663.3735760537,F
333.8378293856416,1005.3632835390321,744.1279539759386,1005.5007934572019,336.12365107069695,16893.216465052847,12629.89942085576,20025.686396067445,16734.5156527009,15486.945907690253,13216.770695490912,F
334.00838507134586,1005.6507816911364,736.1803655976931,1005.3509798527455,331.93650314387287,20376.304361140457,15415.972130131026,18255.303025197707,16607.670492450852,18439.443390012624,18679.265223795468,F
334.5229244530083,1005.0500492128292,732.9996859594936,1005.4531402982941,328.1359488803883,15650.711354616104,18003.976613273502,11773.81844067475,15590.44157992492,15214.111993772332,16263.383232609198,F
335.430387547135,1004.7632821083689,723.7764527763107,1005.6578125000169,322.21522211327334,18059.205695592835,14711.304743775127,14940.702534070278,17382.740679725197,18014.112768405732,16671.212433196586,F
337.5301985722723,1005.4656372161737,715.642655478456,1005.1125097632587,308.7132923214907,18478.883957655416,14957.213487100216,14914.077442370788,16053.744062676147,21445.803361806218,19032.427315201985,F
337.67921569734267,1005.159375965845,713.3534951416498,1005.3015817881251,301.628177343596,10890.17629128735,14701.423255227075,17707.829246576926,16092.689607901175,11162.921001152336,16649.679123467937,F
337.8450396756856,1005.7000002505441,704.9448417916333,1005.6625488437874,297.07005126774754,11985.435207920596,14086.746803962587,20986.893420017826,13513.525795783038,16526.049872643653,12365.772063086453,F
336.80076739485514,1005.3156250628332,703.8332811671553,1005.7531250478856,294.35396829868404,13823.438990669956,13574.566061093068,17702.68003597218,19827.2683491783,16113.622891561448,19716.823324571556,F
336.8614442675446,1005.3632820189636,703.2231164266162,1004.4134800022682,292.1799316843397,17040.255301478363,20084.32328595869,20556.757542102354,16813.044193113827,18820.577400606642,13804.979028326343,F
335.22819548060323,1005.3500620043185,704.8941244323545,1004.8056214543391,288.2635203518491,15969.692360037869,12859.974803690184,16739.894182198324,17765.008913000936,15674.967271179485,15602.660981985764,F
332.57045183535814,1004.6039434508151,710.0549595881243,1005.0503075157005,287.57039696451716,14520.19327644441,19623.832764135954,20059.709151353833,19394.649368909544,15075.79790257649,16088.547997544496,F
330.68441929794574,1005.5250526466098,723.5541575811524,1005.3000501735407,289.2039762476239,17873.24724887941,15793.205064877136,15471.865138799854,17016.173090062723,14726.768989447537,15009.412391687947,F
452.24369867665916,1005.3517587813587,190.99498670584975,235.76999883184553,299.3833454588955,16907.998015366735,17305.7945851183,18692.77227232431,17815.92329644832,15653.402056987976,17800.66712204105,F
520.1016928599049,1005.900000762955,188.6841684379213,228.99607360760388,304.7306814335375,17404.626808641162,18640.699474309204,16388.097485821487,10078.485831433183,17720.412562634127,16593.35838010163,F
562.2324443842538,1005.3593767650611,190.64071878592154,2.9500000000000455,317.0224153623362,19482.508882626018,17568.485352830183,17266.896057201968,19148.61650836112,19486.157013757736,15619.658986828053,F
536.0027796607985,1005.0500335917301,188.61686420662696,2.9500000000000455,320.4407008680186,19213.606207581317,16460.30912264261,15665.740438922285,16976.473412703264,12286.864238721548,19036.72448940559,F
504.31757651006245,1005.053919458468,188.61256124097764,2.9500000000000455,338.4789901566675,14884.100668151024,17935.459255759757,19522.318878388156,13808.37873166856,14144.347386232937,13553.05991371834,F
483.23097521438257,1005.4023483283041,187.4497377948932,2.9500000000000455,345.3684066371046,15924.748632511593,14776.030123707616,19690.247993727036,15212.002101114325,14212.11435082759,15204.248519080584,F
478.53900426645157,1005.1007812500162,190.024462971107,2.9500000000000455,354.5599291391565,11744.912713765118,17819.16796966916,13909.34973854172,17068.952714514504,16638.785841878045,11006.560658807868,F
463.95430716997254,1005.6002319367759,188.57833272241606,210.5490590888418,335.58040332378386,16687.700352078995,18211.57708442,14313.058919045408,13420.16818487895,17542.24519671227,13973.439516252765,F
458.212241345417,1005.6001986175937,195.4906203365138,233.88355917066673,342.8614915514459,13314.361884735505,14668.874420800003,17638.443647193166,13670.208518118121,15197.082568245867,11762.880375206823,F
458.4314584758164,1004.8757996082592,197.83746263087,236.29166551747358,363.11839647614613,11538.12126192141,11403.571960201582,18455.155581843585,16289.804926846837,15382.343813255808,16134.729460501952,F
455.6955801651138,1005.750979614274,193.58581270396826,234.35095424952914,362.6106613169104,19611.999407481082,17225.41227341838,15227.177050705757,16010.824059534429,15020.284199043084,13398.589971000712,F
455.3825572257807,1005.350784311273,197.68828119361123,240.95728054443256,373.9126270925139,17166.917853813648,15777.595404734408,15455.486342658085,16471.804830117442,15925.829280040733,17636.298965582024,F
454.2880980615922,1005.1718772888369,202.68341885043037,239.54681315040216,371.5260116077987,11322.40211827259,15919.012500189536,10520.274483499019,17418.402386117537,15326.485791245232,14772.330979156317,F
454.02566257116325,1005.5064460754551,198.4205770380359,239.59524815975814,367.716320878522,17989.075458637177,16530.002117155134,16967.36024641172,20010.501724658807,15850.487191384536,16835.9751240622,F
458.3488199259997,1005.1000078589346,198.36751532480693,238.08250297792833,364.6283056653968,10787.799227360554,18634.73320352245,17571.45002422041,14131.486053232587,15022.358717814297,16886.31633640863,F
